#Rx
# X(m), Y(m), Z(m), Distance(m), Power (dBm) Phase (deg)
1 -28.0028 2.95289 1.4 35.4418 -137.732 123.194
2 -27.0028 2.95289 1.4 34.5021 -151.018 37.355
3 -26.0028 2.95289 1.4 33.5659 -139.309 152.853
4 -25.0028 2.95289 1.4 32.6335 -144.991 76.9317
5 -24.0028 2.95289 1.4 31.7052 -134.492 -63.2292
6 -23.0028 2.95289 1.4 30.7814 -145.556 -45.7154
7 -22.0028 2.95289 1.4 29.8625 -137.088 144.402
8 -21.0028 2.95289 1.4 28.949 -134.113 58.7056
9 -20.0028 2.95289 1.4 28.0414 -114.642 43.4182
10 -19.0028 2.95289 1.4 27.1403 -101.961 -151.333
11 -18.0028 2.95289 1.4 26.2464 -99.6634 -96.0749
12 -17.0028 2.95289 1.4 25.3604 -83.7372 165.831
13 -16.0028 2.95289 1.4 24.4831 -76.4964 -121.6
14 -15.0028 2.95289 1.4 23.6157 -79.7111 16.4546
15 -14.0028 2.95289 1.4 22.7591 -87.5276 41.3093
16 -13.0028 2.95289 1.4 21.9146 -69.382 -150.82
17 -12.0028 2.95289 1.4 21.0838 -69.9512 -133.876
18 -11.0028 2.95289 1.4 20.2682 -65.3938 79.7182
19 -10.0028 2.95289 1.4 19.4699 -65.5664 -64.8616
20 -9.00282 2.95289 1.4 18.691 -69.7788 85.8888
21 -8.00282 2.95289 1.4 17.934 -79.081 133.691
22 -7.00282 2.95289 1.4 17.2019 -71.3127 -80.7162
23 -6.00282 2.95289 1.4 16.4979 -70.8117 149.989
24 -5.00282 2.95289 1.4 15.8258 -71.2356 -67.003
25 -4.00282 2.95289 1.4 15.1898 -76.6262 44.3151
26 -3.00282 2.95289 1.4 14.5947 -99.136 -178.118
27 -2.00282 2.95289 1.4 14.0457 -72.8289 -122.948
28 -1.00282 2.95289 1.4 13.5483 -85.8737 102.172
29 -0.00282 2.95289 1.4 13.1085 -81.2323 111.628
30 0.99718 2.95289 1.4 12.7321 -62.4052 -66.6619
31 1.99718 2.95289 1.4 12.4251 -59.8634 115.429
32 2.99718 2.95289 1.4 12.1926 -60.4953 -12.8636
33 3.99718 2.95289 1.4 12.0389 -62.2766 20.9364
34 4.99718 2.95289 1.4 11.967 -69.7034 120.972
35 5.99718 2.95289 1.4 11.9785 -60.2329 -139.664
36 6.99718 2.95289 1.4 12.0731 -57.6653 -15.8724
37 7.99718 2.95289 1.4 12.2489 -57.2027 89.7344
38 8.99718 2.95289 1.4 12.5025 -63.0467 18.2179
39 9.99718 2.95289 1.4 12.8291 -70.4558 173.105
40 10.9972 2.95289 1.4 13.2236 -65.9803 49.5542
41 11.9972 2.95289 1.4 13.6798 -67.5679 -135.811
42 12.9972 2.95289 1.4 14.192 -65.365 -126.748
43 13.9972 2.95289 1.4 14.7543 -71.6055 -178.032
44 14.9972 2.95289 1.4 15.3611 -76.7037 -135.706
45 15.9972 2.95289 1.4 16.0075 -79.6533 -38.306
46 16.9972 2.95289 1.4 16.6888 -78.6277 -137.551
47 17.9972 2.95289 1.4 17.4009 -81.478 84.456
48 18.9972 2.95289 1.4 18.1402 -81.2732 -112.167
49 19.9972 2.95289 1.4 18.9035 -78.4278 30.5956
50 20.9972 2.95289 1.4 19.688 -76.9006 -141.33
51 21.9972 2.95289 1.4 20.4913 -77.6514 -68.9891
52 22.9972 2.95289 1.4 21.3112 -79.4261 122.843
53 23.9972 2.95289 1.4 22.146 -79.9347 83.5993
54 24.9972 2.95289 1.4 22.9939 -83.6665 -161.877
55 25.9972 2.95289 1.4 23.8536 -77.8226 -87.9548
56 26.9972 2.95289 1.4 24.7239 -87.2632 106.307
57 27.9972 2.95289 1.4 25.6036 -80.4661 -91.0895
58 28.9972 2.95289 1.4 26.4919 -90.6674 70.6129
59 29.9972 2.95289 1.4 27.3879 -80.5133 -131.027
60 -28.0028 3.95289 1.4 35.1169 -130.168 -142.639
61 -27.0028 3.95289 1.4 34.1683 -135.082 -112.761
62 -26.0028 3.95289 1.4 33.2227 -135.266 -115.258
63 -25.0028 3.95289 1.4 32.2804 -133.531 81.7396
64 -24.0028 3.95289 1.4 31.3416 -132.595 -143.466
65 -23.0028 3.95289 1.4 30.4068 -131.324 169.483
66 -22.0028 3.95289 1.4 29.4762 -134.381 -139
67 -21.0028 3.95289 1.4 28.5504 -145.344 -15.7585
68 -20.0028 3.95289 1.4 27.6297 -105.599 -70.6985
69 -19.0028 3.95289 1.4 26.7147 -93.0143 104.292
70 -18.0028 3.95289 1.4 25.806 -96.2437 14.3705
71 -17.0028 3.95289 1.4 24.9043 -80.4033 34.2559
72 -16.0028 3.95289 1.4 24.0104 -86.8816 -95.5752
73 -15.0028 3.95289 1.4 23.1252 -70.416 -120.43
74 -14.0028 3.95289 1.4 22.2498 -76.4381 -93.9894
75 -13.0028 3.95289 1.4 21.3852 -79.6388 49.8705
76 -12.0028 3.95289 1.4 20.533 -69.2037 35.6217
77 -11.0028 3.95289 1.4 19.6946 -75.231 16.1652
78 -10.0028 3.95289 1.4 18.8721 -73.0085 -151.395
79 -9.00282 3.95289 1.4 18.0674 -68.0843 147.005
80 -8.00282 3.95289 1.4 17.2831 -73.2574 -115.55
81 -7.00282 3.95289 1.4 16.5221 -68.7574 44.6471
82 -6.00282 3.95289 1.4 15.7879 -68.0167 78.7601
83 -5.00282 3.95289 1.4 15.0842 -72.6271 20.4311
84 -4.00282 3.95289 1.4 14.4155 -71.8467 170.803
85 -3.00282 3.95289 1.4 13.787 -62.9716 133.337
86 -2.00282 3.95289 1.4 13.2045 -67.6999 118.318
87 -1.00282 3.95289 1.4 12.6741 -71.2416 140.083
88 -0.00282 3.95289 1.4 12.2028 -79.1831 124.405
89 0.99718 3.95289 1.4 11.7977 -57.0724 -91.7206
90 1.99718 3.95289 1.4 11.4656 -54.5739 142.43
91 2.99718 3.95289 1.4 11.2132 -60.8794 -139.656
92 3.99718 3.95289 1.4 11.0459 -57.7898 -35.8182
93 4.99718 3.95289 1.4 10.9675 -61.4592 -148.471
94 5.99718 3.95289 1.4 10.9801 -56.5444 -22.3411
95 6.99718 3.95289 1.4 11.0832 -54.2985 -54.7451
96 7.99718 3.95289 1.4 11.2744 -53.9886 81.1403
97 8.99718 3.95289 1.4 11.5494 -57.0844 60.1572
98 9.99718 3.95289 1.4 11.9023 -64.9082 -8.19907
99 10.9972 3.95289 1.4 12.3264 -65.0886 -11.3037
100 11.9972 3.95289 1.4 12.8146 -66.9076 -125.652
101 12.9972 3.95289 1.4 13.36 -64.8033 -54.9298
102 13.9972 3.95289 1.4 13.9559 -71.9358 20.5346
103 14.9972 3.95289 1.4 14.5959 -77.8142 86.3591
104 15.9972 3.95289 1.4 15.2747 -79.7577 49.679
105 16.9972 3.95289 1.4 15.9873 -75.4665 127.602
106 17.9972 3.95289 1.4 16.7292 -80.209 -39.1945
107 18.9972 3.95289 1.4 17.4969 -79.8142 -137.927
108 19.9972 3.95289 1.4 18.2871 -92.0432 79.399
109 20.9972 3.95289 1.4 19.097 -75.6008 -115.451
110 21.9972 3.95289 1.4 19.9241 -73.1486 39.5083
111 22.9972 3.95289 1.4 20.7664 -81.9622 121.268
112 23.9972 3.95289 1.4 21.6222 -76.0616 -62.1516
113 24.9972 3.95289 1.4 22.4899 -76.4397 104.255
114 25.9972 3.95289 1.4 23.3682 -75.7483 14.0392
115 26.9972 3.95289 1.4 24.2559 -90.8419 39.1875
116 27.9972 3.95289 1.4 25.152 -96.0174 -75.3246
117 28.9972 3.95289 1.4 26.0557 -77.3928 84.6343
118 29.9972 3.95289 1.4 26.9662 -85.996 178.869
119 -28.0028 4.95289 1.4 34.8177 -95.5452 -41.3213
120 -27.0028 4.95289 1.4 33.8607 -140.757 34.0988
121 -26.0028 4.95289 1.4 32.9063 -125.442 -68.7276
122 -25.0028 4.95289 1.4 31.9546 -117.017 -171.348
123 -24.0028 4.95289 1.4 31.006 -128.155 171.02
124 -23.0028 4.95289 1.4 30.0608 -135.721 -107.895
125 -22.0028 4.95289 1.4 29.1192 -136.11 -89.9296
126 -21.0028 4.95289 1.4 28.1816 -144.525 -91.6997
127 -20.0028 4.95289 1.4 27.2484 -88.9826 -54.9972
128 -19.0028 4.95289 1.4 26.3202 -92.3651 72.6458
129 -18.0028 4.95289 1.4 25.3974 -94.0982 99.5949
130 -17.0028 4.95289 1.4 24.4807 -78.5453 -179.201
131 -16.0028 4.95289 1.4 23.5707 -82.2955 43.7046
132 -15.0028 4.95289 1.4 22.6683 -82.0537 171.787
133 -14.0028 4.95289 1.4 21.7745 -75.9699 -36.4087
134 -13.0028 4.95289 1.4 20.8903 -66.6328 38.8945
135 -12.0028 4.95289 1.4 20.017 -72.4062 56.5411
136 -11.0028 4.95289 1.4 19.1561 -79.3877 -169.281
137 -10.0028 4.95289 1.4 18.3093 -74.2465 11.3659
138 -9.00282 4.95289 1.4 17.4788 -74.1815 -51.9937
139 -8.00282 4.95289 1.4 16.6668 -75.6324 -64.6723
140 -7.00282 4.95289 1.4 15.8763 -70.3258 124.651
141 -6.00282 4.95289 1.4 15.1107 -66.3672 -118.232
142 -5.00282 4.95289 1.4 14.3739 -73.7325 -57.2119
143 -4.00282 4.95289 1.4 13.6706 -71.3143 -104.258
144 -3.00282 4.95289 1.4 13.0061 -61.1281 -49.7575
145 -2.00282 4.95289 1.4 12.3869 -62.4749 -49.4821
146 -1.00282 4.95289 1.4 11.8199 -66.8279 -145.188
147 -0.00282 4.95289 1.4 11.3131 -66.5892 -167.548
148 0.99718 4.95289 1.4 10.8748 -59.1351 -85.6597
149 1.99718 4.95289 1.4 10.5137 -56.2997 47.6053
150 2.99718 4.95289 1.4 10.2378 -61.6293 80.0182
151 3.99718 4.95289 1.4 10.0542 -53.2494 12.3556
152 4.99718 4.95289 1.4 9.96812 -63.8059 173.272
153 5.99718 4.95289 1.4 9.98193 -61.3661 148.389
154 6.99718 4.95289 1.4 10.0953 -54.7503 -130.331
155 7.99718 4.95289 1.4 10.3048 -54.6504 93.3435
156 8.99718 4.95289 1.4 10.605 -55.1046 -163.173
157 9.99718 4.95289 1.4 10.9882 -73.8296 96.2879
158 10.9972 4.95289 1.4 11.4462 -59.271 92.6528
159 11.9972 4.95289 1.4 11.9705 -69.5597 -11.7161
160 12.9972 4.95289 1.4 12.5526 -55.1193 92.9178
161 13.9972 4.95289 1.4 13.1849 -64.5168 172.711
162 14.9972 4.95289 1.4 13.8607 -82.4569 122.695
163 15.9972 4.95289 1.4 14.5737 -71.8821 -77.6581
164 16.9972 4.95289 1.4 15.3189 -78.7227 2.28324
165 17.9972 4.95289 1.4 16.0918 -80.769 -172.855
166 18.9972 4.95289 1.4 16.8885 -76.9716 102.895
167 19.9972 4.95289 1.4 17.7058 -79.335 43.8325
168 20.9972 4.95289 1.4 18.5411 -79.2021 -146.388
169 21.9972 4.95289 1.4 19.3919 -72.5117 101.569
170 22.9972 4.95289 1.4 20.2564 -76.1781 -96.8692
171 23.9972 4.95289 1.4 21.1329 -67.795 -98.348
172 24.9972 4.95289 1.4 22.0198 -67.7207 140.087
173 25.9972 4.95289 1.4 22.9161 -75.2472 -14.0999
174 26.9972 4.95289 1.4 23.8207 -78.1764 72.5687
175 27.9972 4.95289 1.4 24.7326 -89.4846 -101.678
176 28.9972 4.95289 1.4 25.651 -85.6053 61.4862
177 29.9972 4.95289 1.4 26.5754 -87.7652 -168.08
178 -28.0028 5.95289 1.4 34.5449 -100.649 140.626
179 -27.0028 5.95289 1.4 33.5801 -93.5156 -33.1329
180 -26.0028 5.95289 1.4 32.6175 -94.5844 72.3287
181 -25.0028 5.95289 1.4 31.6572 -111.834 157.328
182 -24.0028 5.95289 1.4 30.6994 -130.249 -91.8436
183 -23.0028 5.95289 1.4 29.7444 -136.457 -13.9206
184 -22.0028 5.95289 1.4 28.7924 -135.918 -105.671
185 -21.0028 5.95289 1.4 27.8438 -137.856 -2.01535
186 -20.0028 5.95289 1.4 26.8989 -84.2972 -135.028
187 -19.0028 5.95289 1.4 25.9582 -85.4308 -50.6321
188 -18.0028 5.95289 1.4 25.0221 -85.8655 -13.9248
189 -17.0028 5.95289 1.4 24.0911 -79.6424 122.239
190 -16.0028 5.95289 1.4 23.1658 -92.5069 63.8482
191 -15.0028 5.95289 1.4 22.247 -90.6129 20.3564
192 -14.0028 5.95289 1.4 21.3356 -89.7512 141.087
193 -13.0028 5.95289 1.4 20.4324 -102.229 -94.5534
194 -12.0028 5.95289 1.4 19.5386 -77.3476 12.5957
195 -11.0028 5.95289 1.4 18.6556 -75.4167 -171.113
196 -10.0028 5.95289 1.4 17.7851 -67.2115 129.562
197 -9.00282 5.95289 1.4 16.9288 -77.1146 -156.375
198 -8.00282 5.95289 1.4 16.0891 -72.4103 123.584
199 -7.00282 5.95289 1.4 15.2687 -67.577 70.7634
200 -6.00282 5.95289 1.4 14.471 -69.7859 -39.3802
201 -5.00282 5.95289 1.4 13.6998 -68.0886 99.2963
202 -4.00282 5.95289 1.4 12.96 -63.7088 -175.638
203 -3.00282 5.95289 1.4 12.2571 -65.2983 59.2842
204 -2.00282 5.95289 1.4 11.5979 -61.8131 128.219
205 -1.00282 5.95289 1.4 10.9903 -67.1487 148.938
206 -0.00282 5.95289 1.4 10.4433 -79.289 -99.9854
207 0.99718 5.95289 1.4 9.96687 -51.532 175.147
208 1.99718 5.95289 1.4 9.57152 -64.4538 -46.7928
209 2.99718 5.95289 1.4 9.26765 -68.4109 158.914
210 3.99718 5.95289 1.4 9.06448 -56.1104 11.6173
211 4.99718 5.95289 1.4 8.96885 -56.3707 49.8383
212 5.99718 5.95289 1.4 8.9842 -67.5127 176.728
213 6.99718 5.95289 1.4 9.10996 -54.6131 -24.1427
214 7.99718 5.95289 1.4 9.34167 -56.5632 20.7763
215 8.99718 5.95289 1.4 9.67172 -52.0267 -157.45
216 9.99718 5.95289 1.4 10.0905 -87.0514 -154.47
217 10.9972 5.95289 1.4 10.5874 -63.5216 141.425
218 11.9972 5.95289 1.4 11.1521 -61.0597 -55.6667
219 12.9972 5.95289 1.4 11.7747 -59.3538 -90.7627
220 13.9972 5.95289 1.4 12.4467 -60.2691 -170.048
221 14.9972 5.95289 1.4 13.1604 -64.2783 -121.89
222 15.9972 5.95289 1.4 13.9094 -85.0665 10.0873
223 16.9972 5.95289 1.4 14.6883 -94.7586 18.7688
224 17.9972 5.95289 1.4 15.4926 -84.7727 -115.717
225 18.9972 5.95289 1.4 16.3186 -78.9675 -65.1199
226 19.9972 5.95289 1.4 17.1631 -76.739 -88.366
227 20.9972 5.95289 1.4 18.0235 -101.018 139.152
228 21.9972 5.95289 1.4 18.8977 -73.5507 85.5255
229 22.9972 5.95289 1.4 19.7838 -72.3861 127.211
230 23.9972 5.95289 1.4 20.6803 -84.4575 -69.0982
231 24.9972 5.95289 1.4 21.5859 -75.1319 -94.5616
232 25.9972 5.95289 1.4 22.4995 -86.383 -162.118
233 26.9972 5.95289 1.4 23.4201 -75.0188 82.3914
234 27.9972 5.95289 1.4 24.347 -75.6517 173.164
235 28.9972 5.95289 1.4 25.2795 -90.7596 179.389
236 29.9972 5.95289 1.4 26.2169 -79.9143 -106.703
237 -28.0028 6.95289 1.4 34.2991 -104.064 -76.8972
238 -27.0028 6.95289 1.4 33.3272 -99.2968 -5.40928
239 -26.0028 6.95289 1.4 32.357 -110.48 -84.1434
240 -25.0028 6.95289 1.4 31.3887 -80.6185 56.7042
241 -24.0028 6.95289 1.4 30.4225 -127.354 -84.1079
242 -23.0028 6.95289 1.4 29.4585 -121.625 102.246
243 -22.0028 6.95289 1.4 28.497 -134.636 -62.565
244 -21.0028 6.95289 1.4 27.5382 -119.329 131.131
245 -20.0028 6.95289 1.4 26.5825 -90.6129 174.825
246 -19.0028 6.95289 1.4 25.6302 -85.501 80.264
247 -18.0028 6.95289 1.4 24.6816 -84.8507 16.3047
248 -17.0028 6.95289 1.4 23.7372 -94.7417 127.744
249 -16.0028 6.95289 1.4 22.7976 -98.2692 84.3009
250 -15.0028 6.95289 1.4 21.8634 -95.2571 5.42013
251 -14.0028 6.95289 1.4 20.9352 -82.6993 -95.5845
252 -13.0028 6.95289 1.4 20.014 -89.3896 12.4011
253 -12.0028 6.95289 1.4 19.1006 -81.9424 4.48076
254 -11.0028 6.95289 1.4 18.1964 -69.2461 121.842
255 -10.0028 6.95289 1.4 17.3027 -68.3548 146.743
256 -9.00282 6.95289 1.4 16.4213 -66.8204 -47.0143
257 -8.00282 6.95289 1.4 15.5543 -71.3794 -75.255
258 -7.00282 6.95289 1.4 14.7041 -70.7023 -49.7897
259 -6.00282 6.95289 1.4 13.874 -75.1781 -126.246
260 -5.00282 6.95289 1.4 13.0676 -68.8925 158.819
261 -4.00282 6.95289 1.4 12.2898 -64.0171 -59.5657
262 -3.00282 6.95289 1.4 11.5461 -66.8547 -37.8362
263 -2.00282 6.95289 1.4 10.8438 -71.786 -95.2798
264 -1.00282 6.95289 1.4 10.1914 -68.7124 -48.1433
265 -0.00282 6.95289 1.4 9.59895 -70.6231 -127.934
266 0.99718 6.95289 1.4 9.07829 -60.1568 -158.002
267 1.99718 6.95289 1.4 8.64239 -72.3882 -137.134
268 2.99718 6.95289 1.4 8.3046 -66.8434 80.8102
269 3.99718 6.95289 1.4 8.07724 -58.8868 113.063
270 4.99718 6.95289 1.4 7.96977 -55.4229 31.7147
271 5.99718 6.95289 1.4 7.98704 -55.6867 -169.847
272 6.99718 6.95289 1.4 8.12824 -55.8538 27.4454
273 7.99718 6.95289 1.4 8.38712 -64.7695 38.6472
274 8.99718 6.95289 1.4 8.75324 -70.4349 147.77
275 9.99718 6.95289 1.4 9.21383 -67.8172 100.385
276 10.9972 6.95289 1.4 9.75552 -63.8903 47.022
277 11.9972 6.95289 1.4 10.3656 -64.0875 99.1345
278 12.9972 6.95289 1.4 11.0327 -60.55 -38.8704
279 13.9972 6.95289 1.4 11.7472 -62.5211 76.1204
280 14.9972 6.95289 1.4 12.5009 -69.3151 -68.8567
281 15.9972 6.95289 1.4 13.2871 -73.4191 51.2631
282 16.9972 6.95289 1.4 14.1005 -89.678 -92.2626
283 17.9972 6.95289 1.4 14.9365 -83.4131 139.354
284 18.9972 6.95289 1.4 15.7916 -89.294 59.5191
285 19.9972 6.95289 1.4 16.6628 -77.572 49.9888
286 20.9972 6.95289 1.4 17.5478 -74.3079 0.683993
287 21.9972 6.95289 1.4 18.4445 -80.4199 -101.737
288 22.9972 6.95289 1.4 19.3514 -68.7526 160.99
289 23.9972 6.95289 1.4 20.267 -65.4055 43.7251
290 24.9972 6.95289 1.4 21.1903 -78.1969 -129.044
291 25.9972 6.95289 1.4 22.1202 -77.8579 120.964
292 26.9972 6.95289 1.4 23.056 -82.8291 -41.6747
293 27.9972 6.95289 1.4 23.9969 -72.6124 -11.838
294 28.9972 6.95289 1.4 24.9425 -85.5859 78.1752
295 29.9972 6.95289 1.4 25.8922 -86.1317 116.968
296 -28.0028 7.95289 1.4 34.0808 -92.4941 41.7712
297 -27.0028 7.95289 1.4 33.1026 -97.8598 168.023
298 -26.0028 7.95289 1.4 32.1256 -92.6984 135.133
299 -25.0028 7.95289 1.4 31.1501 -82.4895 33.1464
300 -24.0028 7.95289 1.4 30.1762 -120.373 171.038
301 -23.0028 7.95289 1.4 29.2041 -110.642 128.463
302 -22.0028 7.95289 1.4 28.234 -128.952 -129.437
303 -21.0028 7.95289 1.4 27.2659 -122.036 145.228
304 -20.0028 7.95289 1.4 26.3003 -86.2093 -148.81
305 -19.0028 7.95289 1.4 25.3374 -85.8219 -170.429
306 -18.0028 7.95289 1.4 24.3774 -85.7689 -71.5765
307 -17.0028 7.95289 1.4 23.4208 -92.818 24.7807
308 -16.0028 7.95289 1.4 22.468 -81.0702 -96.1598
309 -15.0028 7.95289 1.4 21.5194 -76.9993 -86.9574
310 -14.0028 7.95289 1.4 20.5757 -87.2531 167.828
311 -13.0028 7.95289 1.4 19.6376 -78.2391 2.30118
312 -12.0028 7.95289 1.4 18.7059 -76.9572 -22.3401
313 -11.0028 7.95289 1.4 17.7816 -84.9825 -62.6213
314 -10.0028 7.95289 1.4 16.866 -68.4161 -31.916
315 -9.00282 7.95289 1.4 15.9605 -70.9782 -16.418
316 -8.00282 7.95289 1.4 15.067 -67.8943 -140.174
317 -7.00282 7.95289 1.4 14.1876 -79.7695 15.0987
318 -6.00282 7.95289 1.4 13.3253 -72.7177 91.1038
319 -5.00282 7.95289 1.4 12.4836 -70.6591 28.5651
320 -4.00282 7.95289 1.4 11.6668 -67.4374 -32.546
321 -3.00282 7.95289 1.4 10.8807 -73.7333 126.884
322 -2.00282 7.95289 1.4 10.1324 -64.5085 -138.046
323 -1.00282 7.95289 1.4 9.43087 -67.2996 129.51
324 -0.00282 7.95289 1.4 8.78731 -64.5234 -173.844
325 0.99718 7.95289 1.4 8.21537 -51.6246 -61.5135
326 1.99718 7.95289 1.4 7.73096 -56.6771 -74.8196
327 2.99718 7.95289 1.4 7.35141 -60.9425 59.4723
328 3.99718 7.95289 1.4 7.09357 -51.9399 146.542
329 4.99718 7.95289 1.4 6.97095 -53.4396 97.924
330 5.99718 7.95289 1.4 6.99068 -56.9007 -99.7536
331 6.99718 7.95289 1.4 7.15158 -54.909 35.8188
332 7.99718 7.95289 1.4 7.4445 -53.0356 -106.883
333 8.99718 7.95289 1.4 7.85469 -61.635 84.4838
334 9.99718 7.95289 1.4 8.3649 -66.2274 -174.313
335 10.9972 7.95289 1.4 8.95807 -57.5883 -48.6561
336 11.9972 7.95289 1.4 9.61886 -59.7383 -162.597
337 12.9972 7.95289 1.4 10.3343 -59.6939 -112.929
338 13.9972 7.95289 1.4 11.0938 -69.36 -144.539
339 14.9972 7.95289 1.4 11.889 -76.6642 47.1689
340 15.9972 7.95289 1.4 12.7132 -80.6175 152.908
341 16.9972 7.95289 1.4 13.561 -81.2246 -133.2
342 17.9972 7.95289 1.4 14.4283 -82.971 150.156
343 18.9972 7.95289 1.4 15.3118 -83.0355 -159.37
344 19.9972 7.95289 1.4 16.2088 -74.9273 154.687
345 20.9972 7.95289 1.4 17.1173 -74.5267 19.5923
346 21.9972 7.95289 1.4 18.0354 -67.2852 -21.8067
347 22.9972 7.95289 1.4 18.9619 -68.7942 -143.632
348 23.9972 7.95289 1.4 19.8954 -68.548 65.026
349 24.9972 7.95289 1.4 20.8352 -69.9148 -82.7441
350 25.9972 7.95289 1.4 21.7802 -83.1893 -135.746
351 26.9972 7.95289 1.4 22.73 -79.8285 16.7407
352 27.9972 7.95289 1.4 23.684 -80.6957 -91.2443
353 28.9972 7.95289 1.4 24.6415 -88.6418 70.6434
354 29.9972 7.95289 1.4 25.6024 -79.3337 -50.2234
355 -28.0028 8.95289 1.4 33.8907 -81.8058 -132.399
356 -27.0028 8.95289 1.4 32.9068 -81.2325 143.204
357 -26.0028 8.95289 1.4 31.9238 -82.0963 47.4879
358 -25.0028 8.95289 1.4 30.942 -87.7463 50.2657
359 -24.0028 8.95289 1.4 29.9613 -98.2697 43.374
360 -23.0028 8.95289 1.4 28.982 -116.415 -117.567
361 -22.0028 8.95289 1.4 28.0042 -111.926 -133.23
362 -21.0028 8.95289 1.4 27.0279 -110.112 -126.491
363 -20.0028 8.95289 1.4 26.0535 -97.4408 -29.8389
364 -19.0028 8.95289 1.4 25.0811 -86.4168 101.227
365 -18.0028 8.95289 1.4 24.1109 -106.698 -91.1473
366 -17.0028 8.95289 1.4 23.1433 -80.4629 148.583
367 -16.0028 8.95289 1.4 22.1785 -82.0827 -165.796
368 -15.0028 8.95289 1.4 21.217 -82.169 105.906
369 -14.0028 8.95289 1.4 20.2592 -85.5556 65.0466
370 -13.0028 8.95289 1.4 19.3058 -85.2105 135.385
371 -12.0028 8.95289 1.4 18.3572 -80.4885 -39.2564
372 -11.0028 8.95289 1.4 17.4145 -82.5275 -177.326
373 -10.0028 8.95289 1.4 16.4784 -76.2829 -176.408
374 -9.00282 8.95289 1.4 15.5504 -71.6194 169.961
375 -8.00282 8.95289 1.4 14.6318 -69.0426 165.795
376 -7.00282 8.95289 1.4 13.7246 -70.2999 -15.9466
377 -6.00282 8.95289 1.4 12.8312 -76.0028 59.0786
378 -5.00282 8.95289 1.4 11.9548 -76.3625 -171.633
379 -4.00282 8.95289 1.4 11.0992 -68.9694 157.778
380 -3.00282 8.95289 1.4 10.2697 -68.9811 68.9106
381 -2.00282 8.95289 1.4 9.47327 -62.285 -29.6276
382 -1.00282 8.95289 1.4 8.71885 -62.4109 66.1141
383 -0.00282 8.95289 1.4 8.01834 -59.5968 -84.2462
384 0.99718 8.95289 1.4 7.3871 -55.3792 -140.849
385 1.99718 8.95289 1.4 6.84432 -62.7147 55.2364
386 2.99718 8.95289 1.4 6.4125 -63.5885 11.1155
387 3.99718 8.95289 1.4 6.1152 -52.7097 41.3642
388 4.99718 8.95289 1.4 5.97253 -60.1596 -144.384
389 5.99718 8.95289 1.4 5.99555 -57.1202 -55.9722
390 6.99718 8.95289 1.4 6.1824 -55.5483 -28.1766
391 7.99718 8.95289 1.4 6.51902 -59.9409 162.18
392 8.99718 8.95289 1.4 6.98377 -55.7543 -173.429
393 9.99718 8.95289 1.4 7.55305 -66.4437 100.458
394 10.9972 8.95289 1.4 8.20512 -55.5683 36.4312
395 11.9972 8.95289 1.4 8.92185 -66.1265 133.161
396 12.9972 8.95289 1.4 9.68891 -61.6897 7.42422
397 13.9972 8.95289 1.4 10.4953 -68.296 162.354
398 14.9972 8.95289 1.4 11.3325 -67.4246 33.3938
399 15.9972 8.95289 1.4 12.1943 -67.1023 -128.608
400 16.9972 8.95289 1.4 13.0758 -77.0056 25.2048
401 17.9972 8.95289 1.4 13.9733 -83.0596 8.70274
402 18.9972 8.95289 1.4 14.8838 -83.9433 52.3118
403 19.9972 8.95289 1.4 15.8052 -68.4652 -163.664
404 20.9972 8.95289 1.4 16.7356 -66.738 176.535
405 21.9972 8.95289 1.4 17.6735 -66.5635 61.7189
406 22.9972 8.95289 1.4 18.618 -70.9441 -138.453
407 23.9972 8.95289 1.4 19.568 -67.0981 -39.7094
408 24.9972 8.95289 1.4 20.5227 -77.6228 156.583
409 25.9972 8.95289 1.4 21.4815 -79.7048 -109.083
410 26.9972 8.95289 1.4 22.444 -95.6966 28.2287
411 27.9972 8.95289 1.4 23.4096 -82.1481 -32.2425
412 28.9972 8.95289 1.4 24.3779 -79.4228 -53.7015
413 29.9972 8.95289 1.4 25.3487 -75.2963 -151.033
414 -28.0028 9.95289 1.4 33.7292 -76.5934 87.3046
415 -27.0028 9.95289 1.4 32.7404 -77.8219 161.011
416 -26.0028 9.95289 1.4 31.7523 -94.4064 -18.2809
417 -25.0028 9.95289 1.4 30.765 -89.8515 -120.156
418 -24.0028 9.95289 1.4 29.7785 -91.5885 -164.93
419 -23.0028 9.95289 1.4 28.793 -97.7295 -119.512
420 -22.0028 9.95289 1.4 27.8085 -85.5136 85.0845
421 -21.0028 9.95289 1.4 26.8251 -87.7719 138.563
422 -20.0028 9.95289 1.4 25.843 -85.2318 -141.722
423 -19.0028 9.95289 1.4 24.8624 -87.9481 -101.746
424 -18.0028 9.95289 1.4 23.8833 -88.9588 -155.546
425 -17.0028 9.95289 1.4 22.9061 -80.8174 -148.558
426 -16.0028 9.95289 1.4 21.9309 -76.8715 -98.8558
427 -15.0028 9.95289 1.4 20.958 -75.9189 -48.2701
428 -14.0028 9.95289 1.4 19.9878 -82.9841 -65.2159
429 -13.0028 9.95289 1.4 19.0208 -87.5767 -179.294
430 -12.0028 9.95289 1.4 18.0573 -88.212 32.0843
431 -11.0028 9.95289 1.4 17.098 -81.2342 69.3652
432 -10.0028 9.95289 1.4 16.1436 -77.0836 56.1328
433 -9.00282 9.95289 1.4 15.1951 -89.0067 -87.6114
434 -8.00282 9.95289 1.4 14.2537 -69.7865 -20.6386
435 -7.00282 9.95289 1.4 13.3207 -70.5808 35.0054
436 -6.00282 9.95289 1.4 12.3983 -68.9941 148.195
437 -5.00282 9.95289 1.4 11.4888 -73.8333 111.98
438 -4.00282 9.95289 1.4 10.5957 -74.8648 -163.085
439 -3.00282 9.95289 1.4 9.72339 -64.907 -101.811
440 -2.00282 9.95289 1.4 8.87805 -61.5371 -49.4965
441 -1.00282 9.95289 1.4 8.06816 -65.4154 95.966
442 -0.00282 9.95289 1.4 7.30552 -60.7688 -90.8724
443 0.99718 9.95289 1.4 6.60652 -58.9652 70.1477
444 1.99718 9.95289 1.4 5.99347 -54.5102 44.6869
445 2.99718 9.95289 1.4 5.49519 -54.7283 25.4245
446 3.99718 9.95289 1.4 5.14515 -56.5735 17.6819
447 4.99718 9.95289 1.4 4.97474 -52.0673 -72.4483
448 5.99718 9.95289 1.4 5.00235 -50.1688 -87.6852
449 6.99718 9.95289 1.4 5.22485 -53.4611 -29.5946
450 7.99718 9.95289 1.4 5.61912 -51.8501 -85.8323
451 8.99718 9.95289 1.4 6.15223 -51.9182 -173.152
452 9.99718 9.95289 1.4 6.79157 -56.7553 -134.245
453 10.9972 9.95289 1.4 7.51005 -63.4395 -21.4101
454 11.9972 9.95289 1.4 8.28712 -62.9948 -135.186
455 12.9972 9.95289 1.4 9.10779 -73.0448 -42.0976
456 13.9972 9.95289 1.4 9.96129 -71.4851 -123.038
457 14.9972 9.95289 1.4 10.8399 -81.2109 -130.907
458 15.9972 9.95289 1.4 11.7379 -65.6816 -121.095
459 16.9972 9.95289 1.4 12.6512 -75.7312 -27.6383
460 17.9972 9.95289 1.4 13.5768 -74.0025 -148.449
461 18.9972 9.95289 1.4 14.5122 -66.8625 16.102
462 19.9972 9.95289 1.4 15.4558 -68.3559 10.5331
463 20.9972 9.95289 1.4 16.406 -63.9323 -108.7
464 21.9972 9.95289 1.4 17.3618 -68.1578 29.9974
465 22.9972 9.95289 1.4 18.3223 -70.057 157.035
466 23.9972 9.95289 1.4 19.2868 -73.6037 -108.598
467 24.9972 9.95289 1.4 20.2548 -66.9477 -100.783
468 25.9972 9.95289 1.4 21.2258 -69.5707 -87.3138
469 26.9972 9.95289 1.4 22.1993 -69.6148 167.872
470 27.9972 9.95289 1.4 23.1751 -83.6566 -54.4145
471 28.9972 9.95289 1.4 24.1528 -73.5255 31.453
472 29.9972 9.95289 1.4 25.1323 -71.5469 -152.871
473 -28.0028 10.9529 1.4 33.5966 -95.5453 -29.3951
474 -27.0028 10.9529 1.4 32.6038 -89.2047 47.5694
475 -26.0028 10.9529 1.4 31.6115 -80.8046 178.918
476 -25.0028 10.9529 1.4 30.6196 -88.2814 -176.054
477 -24.0028 10.9529 1.4 29.6283 -95.9203 -72.7701
478 -23.0028 10.9529 1.4 28.6376 -94.9108 44.9807
479 -22.0028 10.9529 1.4 27.6476 -92.5346 -16.4458
480 -21.0028 10.9529 1.4 26.6583 -89.4792 70.0749
481 -20.0028 10.9529 1.4 25.6698 -79.0685 -41.1985
482 -19.0028 10.9529 1.4 24.6823 -86.041 119.145
483 -18.0028 10.9529 1.4 23.6958 -97.2789 -100.164
484 -17.0028 10.9529 1.4 22.7104 -92.8217 19.9132
485 -16.0028 10.9529 1.4 21.7265 -84.5369 172.718
486 -15.0028 10.9529 1.4 20.744 -87.9772 176.74
487 -14.0028 10.9529 1.4 19.7634 -92.2602 156.183
488 -13.0028 10.9529 1.4 18.7847 -80.8121 163.551
489 -12.0028 10.9529 1.4 17.8085 -79.2231 12.907
490 -11.0028 10.9529 1.4 16.835 -78.5722 -143.625
491 -10.0028 10.9529 1.4 15.8648 -78.3356 86.386
492 -9.00282 10.9529 1.4 14.8986 -73.1525 -58.5932
493 -8.00282 10.9529 1.4 13.9371 -78.4808 146.096
494 -7.00282 10.9529 1.4 12.9815 -67.8668 -85.8213
495 -6.00282 10.9529 1.4 12.0331 -70.5654 -107.724
496 -5.00282 10.9529 1.4 11.0937 -73.4184 6.61718
497 -4.00282 10.9529 1.4 10.1659 -71.8914 -167.919
498 -3.00282 10.9529 1.4 9.25317 -65.6786 178.271
499 -2.00282 10.9529 1.4 8.36042 -66.3293 3.06461
500 -1.00282 10.9529 1.4 7.49481 -66.099 56.6908
501 -0.00282 10.9529 1.4 6.6669 -75.5109 -68.6006
502 0.99718 10.9529 1.4 5.89263 -60.6978 23.7675
503 1.99718 10.9529 1.4 5.19601 -55.3952 -91.0459
504 2.99718 10.9529 1.4 4.61238 -50.66 129.022
505 3.99718 10.9529 1.4 4.18921 -55.1606 -59.4087
506 4.99718 10.9529 1.4 3.97806 -51.2076 -41.7357
507 5.99718 10.9529 1.4 4.01254 -48.5158 -51.5174
508 6.99718 10.9529 1.4 4.28672 -55.8169 -97.905
509 7.99718 10.9529 1.4 4.75935 -49.2249 7.57583
510 8.99718 10.9529 1.4 5.37837 -51.3793 61.7082
511 9.99718 10.9529 1.4 6.09938 -60.7031 161.92
512 10.9972 10.9529 1.4 6.89042 -63.94 20.5285
513 11.9972 10.9529 1.4 7.73003 -65.688 91.277
514 12.9972 10.9529 1.4 8.604 -67.7948 -38.5894
515 13.9972 10.9529 1.4 9.50286 -69.6391 -167.182
516 14.9972 10.9529 1.4 10.4202 -71.0163 101.622
517 15.9972 10.9529 1.4 11.3514 -69.1274 177.966
518 16.9972 10.9529 1.4 12.2935 -72.59 67.084
519 17.9972 10.9529 1.4 13.2441 -66.2549 -135.835
520 18.9972 10.9529 1.4 14.2015 -65.317 -117.129
521 19.9972 10.9529 1.4 15.1643 -73.9031 113.829
522 20.9972 10.9529 1.4 16.1317 -67.9675 -177.837
523 21.9972 10.9529 1.4 17.1029 -72.7185 -83.6514
524 22.9972 10.9529 1.4 18.0772 -72.7266 4.03474
525 23.9972 10.9529 1.4 19.0541 -79.2773 15.1588
526 24.9972 10.9529 1.4 20.0333 -70.9127 -144.158
527 25.9972 10.9529 1.4 21.0145 -75.7747 -130.732
528 26.9972 10.9529 1.4 21.9974 -70.3973 127.068
529 27.9972 10.9529 1.4 22.9818 -83.8977 44.3349
530 28.9972 10.9529 1.4 23.9674 -87.995 171.291
531 29.9972 10.9529 1.4 24.9542 -84.5194 -85.4162
532 -28.0028 11.9529 1.4 33.4934 -93.8918 94.6678
533 -27.0028 11.9529 1.4 32.4975 -90.0438 16.3636
534 -26.0028 11.9529 1.4 31.5018 -87.5515 171.449
535 -25.0028 11.9529 1.4 30.5064 -85.4623 -22.2447
536 -24.0028 11.9529 1.4 29.5112 -75.1221 -31.0456
537 -23.0028 11.9529 1.4 28.5165 -80.5512 -40.9472
538 -22.0028 11.9529 1.4 27.5221 -78.0063 71.6836
539 -21.0028 11.9529 1.4 26.5281 -81.7163 -174.076
540 -20.0028 11.9529 1.4 25.5346 -84.7645 -35.6013
541 -19.0028 11.9529 1.4 24.5416 -73.5548 165.981
542 -18.0028 11.9529 1.4 23.5492 -73.66 -3.7021
543 -17.0028 11.9529 1.4 22.5575 -70.6156 81.433
544 -16.0028 11.9529 1.4 21.5666 -77.2693 17.1875
545 -15.0028 11.9529 1.4 20.5765 -69.1136 148.153
546 -14.0028 11.9529 1.4 19.5874 -66.6714 -98.8096
547 -13.0028 11.9529 1.4 18.5996 -66.0431 -67.9342
548 -12.0028 11.9529 1.4 17.613 -68.407 -4.10317
549 -11.0028 11.9529 1.4 16.6281 -71.1179 -131.743
550 -10.0028 11.9529 1.4 15.6451 -70.9629 144.606
551 -9.00282 11.9529 1.4 14.6644 -73.0336 121.419
552 -8.00282 11.9529 1.4 13.6865 -80.3095 58.1829
553 -7.00282 11.9529 1.4 12.712 -69.936 -68.823
554 -6.00282 11.9529 1.4 11.7419 -71.8825 88.9434
555 -5.00282 11.9529 1.4 10.7772 -59.2532 -43.2722
556 -4.00282 11.9529 1.4 9.8195 -65.1168 3.65086
557 -3.00282 11.9529 1.4 8.87119 -61.0974 152.821
558 -2.00282 11.9529 1.4 7.93559 -64.9124 115.423
559 -1.00282 11.9529 1.4 7.01777 -62.6395 -62.8234
560 -0.00282 11.9529 1.4 6.12573 -55.7568 57.1098
561 0.99718 11.9529 1.4 5.27257 -50.4958 4.31559
562 1.99718 11.9529 1.4 4.48057 -51.6142 -173.938
563 2.99718 11.9529 1.4 3.78827 -61.2491 123.881
564 3.99718 11.9529 1.4 3.25982 -47.6129 -177.164
565 4.99718 11.9529 1.4 2.98361 -44.5603 -88.9473
566 5.99718 11.9529 1.4 3.02942 -45.9717 70.2148
567 6.99718 11.9529 1.4 3.38421 -44.6687 93.8234
568 7.99718 11.9529 1.4 3.9659 -48.1814 -173.034
569 8.99718 11.9529 1.4 4.69082 -52.2653 -64.8515
570 9.99718 11.9529 1.4 5.50266 -55.1362 71.3393
571 10.9972 11.9529 1.4 6.36826 -64.9239 -101.678
572 11.9972 11.9529 1.4 7.26844 -65.6564 157.245
573 12.9972 11.9529 1.4 8.19181 -79.3791 -174.451
574 13.9972 11.9529 1.4 9.13133 -60.8718 158.539
575 14.9972 11.9529 1.4 10.0825 -65.1308 119.581
576 15.9972 11.9529 1.4 11.0423 -64.3197 -140.3
577 16.9972 11.9529 1.4 12.0086 -67.7869 103.991
578 17.9972 11.9529 1.4 12.9801 -69.4994 70.8378
579 18.9972 11.9529 1.4 13.9556 -69.7499 -35.935
580 19.9972 11.9529 1.4 14.9343 -71.3465 -10.9771
581 20.9972 11.9529 1.4 15.9157 -72.7761 22.6883
582 21.9972 11.9529 1.4 16.8993 -68.0597 61.9445
583 22.9972 11.9529 1.4 17.8846 -68.7461 32.9256
584 23.9972 11.9529 1.4 18.8716 -69.0759 31.595
585 24.9972 11.9529 1.4 19.8598 -76.9693 -75.4925
586 25.9972 11.9529 1.4 20.8491 -72.0044 12.3786
587 26.9972 11.9529 1.4 21.8395 -71.349 -70.5448
588 27.9972 11.9529 1.4 22.8306 -75.3032 -165.51
589 28.9972 11.9529 1.4 23.8225 -79.0661 147.953
590 29.9972 11.9529 1.4 24.8151 -73.3205 84.7572
591 -28.0028 12.9529 1.4 33.4199 -86.281 116.743
592 -27.0028 12.9529 1.4 32.4217 -88.0007 -37.8285
593 -26.0028 12.9529 1.4 31.4235 -83.0036 -118.728
594 -25.0028 12.9529 1.4 30.4256 -88.2614 98.5758
595 -24.0028 12.9529 1.4 29.4277 -87.2563 164.838
596 -23.0028 12.9529 1.4 28.43 -75.2239 141.287
597 -22.0028 12.9529 1.4 27.4325 -75.9532 -67.8496
598 -21.0028 12.9529 1.4 26.4351 -74.2025 48.3054
599 -20.0028 12.9529 1.4 25.438 -83.0815 -115.707
600 -19.0028 12.9529 1.4 24.4411 -76.2909 -90.8321
601 -18.0028 12.9529 1.4 23.4445 -70.7914 -6.90889
602 -17.0028 12.9529 1.4 22.4481 -70.9918 -5.00496
603 -16.0028 12.9529 1.4 21.4521 -72.8485 -20.3664
604 -15.0028 12.9529 1.4 20.4565 -70.0888 -64.6426
605 -14.0028 12.9529 1.4 19.4614 -77.65 88.4715
606 -13.0028 12.9529 1.4 18.4667 -66.9413 -155.737
607 -12.0028 12.9529 1.4 17.4727 -74.7948 -65.9267
608 -11.0028 12.9529 1.4 16.4794 -70.8739 87.4929
609 -10.0028 12.9529 1.4 15.487 -67.1664 59.8945
610 -9.00282 12.9529 1.4 14.4956 -71.5377 113.975
611 -8.00282 12.9529 1.4 13.5055 -68.068 67.5189
612 -7.00282 12.9529 1.4 12.5169 -65.5628 -63.9365
613 -6.00282 12.9529 1.4 11.5303 -65.026 -45.4075
614 -5.00282 12.9529 1.4 10.5463 -77.3991 97.836
615 -4.00282 12.9529 1.4 9.56554 -70.2633 -178.239
616 -3.00282 12.9529 1.4 8.58924 -63.4047 -8.62078
617 -2.00282 12.9529 1.4 7.61909 -58.6963 -144.07
618 -1.00282 12.9529 1.4 6.65778 -57.3774 -99.107
619 -0.00282 12.9529 1.4 5.70977 -55.1252 -169.816
620 0.99718 12.9529 1.4 4.78298 -61.4392 8.50145
621 1.99718 12.9529 1.4 3.89261 -52.6312 127.754
622 2.99718 12.9529 1.4 3.07049 -48.8185 27.6744
623 3.99718 12.9529 1.4 2.38817 -47.3643 -102.066
624 4.99718 12.9529 1.4 1.99471 -44.6235 -42.7485
625 5.99718 12.9529 1.4 2.0626 -50.0966 20.5677
626 6.99718 12.9529 1.4 2.55535 -44.4259 56.1072
627 7.99718 12.9529 1.4 3.28714 -54.4029 139.735
628 8.99718 12.9529 1.4 4.13289 -62.181 91.7732
629 9.99718 12.9529 1.4 5.0355 -64.2234 62.3829
630 10.9972 12.9529 1.4 5.96923 -63.7097 -170.445
631 11.9972 12.9529 1.4 6.9215 -68.8172 87.4453
632 12.9972 12.9529 1.4 7.8856 -70.9998 -62.4687
633 13.9972 12.9529 1.4 8.85766 -64.1848 21.1446
634 14.9972 12.9529 1.4 9.83533 -61.693 23.0184
635 15.9972 12.9529 1.4 10.8171 -64.8824 27.353
636 16.9972 12.9529 1.4 11.8019 -68.8337 -63.5875
637 17.9972 12.9529 1.4 12.7891 -67.2909 118.264
638 18.9972 12.9529 1.4 13.7781 -89.8928 67.5477
639 19.9972 12.9529 1.4 14.7686 -71.3216 144.527
640 20.9972 12.9529 1.4 15.7603 -74.5201 -179.329
641 21.9972 12.9529 1.4 16.753 -79.4082 158.777
642 22.9972 12.9529 1.4 17.7465 -77.0837 13.5559
643 23.9972 12.9529 1.4 18.7407 -67.8953 -174.386
644 24.9972 12.9529 1.4 19.7355 -67.9885 88.2946
645 25.9972 12.9529 1.4 20.7307 -73.4662 -37.2599
646 26.9972 12.9529 1.4 21.7265 -74.1694 -11.4937
647 27.9972 12.9529 1.4 22.7226 -77.5514 -157.411
648 28.9972 12.9529 1.4 23.719 -82.165 -0.722659
649 29.9972 12.9529 1.4 24.7157 -79.1587 18.9299
650 -28.0028 13.9529 1.4 33.3761 -81.7955 87.1418
651 -27.0028 13.9529 1.4 32.3765 -91.2483 -130.015
652 -26.0028 13.9529 1.4 31.377 -84.6784 141.069
653 -25.0028 13.9529 1.4 30.3775 -87.4516 -20.2617
654 -24.0028 13.9529 1.4 29.378 -76.6914 143.096
655 -23.0028 13.9529 1.4 28.3786 -77.654 -173.464
656 -22.0028 13.9529 1.4 27.3792 -75.5231 -128.564
657 -21.0028 13.9529 1.4 26.3798 -93.5461 44.6014
658 -20.0028 13.9529 1.4 25.3805 -75.2686 17.2767
659 -19.0028 13.9529 1.4 24.3812 -73.4903 -52.0085
660 -18.0028 13.9529 1.4 23.382 -74.7774 -132.169
661 -17.0028 13.9529 1.4 22.3829 -76.6565 143.066
662 -16.0028 13.9529 1.4 21.3839 -73.5436 144.362
663 -15.0028 13.9529 1.4 20.385 -75.6942 70.2912
664 -14.0028 13.9529 1.4 19.3861 -79.0965 9.06762
665 -13.0028 13.9529 1.4 18.3874 -72.5861 -11.3661
666 -12.0028 13.9529 1.4 17.3889 -67.2851 -155.882
667 -11.0028 13.9529 1.4 16.3905 -71.8952 14.5427
668 -10.0028 13.9529 1.4 15.3923 -71.0116 -44.0537
669 -9.00282 13.9529 1.4 14.3944 -67.1328 -138.943
670 -8.00282 13.9529 1.4 13.3968 -65.9606 120.129
671 -7.00282 13.9529 1.4 12.3996 -72.7259 -40.5573
672 -6.00282 13.9529 1.4 11.4029 -66.3089 -40.5686
673 -5.00282 13.9529 1.4 10.4068 -60.406 -38.5883
674 -4.00282 13.9529 1.4 9.41151 -80.9291 -143.857
675 -3.00282 13.9529 1.4 8.41736 -58.5619 41.1977
676 -2.00282 13.9529 1.4 7.42479 -57.7367 43.4486
677 -1.00282 13.9529 1.4 6.43451 -62.1487 5.74036
678 -0.00282 13.9529 1.4 5.44779 -65.4191 -104.539
679 0.99718 13.9529 1.4 4.46698 -64.4035 -122.416
680 1.99718 13.9529 1.4 3.49705 -62.2861 129.143
681 2.99718 13.9529 1.4 2.55046 -50.925 104.013
682 3.99718 13.9529 1.4 1.66742 -48.765 -172.269
683 4.99718 13.9529 1.4 1.02751 -39.1465 -65.8916
684 5.99718 13.9529 1.4 1.1538 -36.3432 -167.532
685 6.99718 13.9529 1.4 1.89914 -52.5235 -108.035
686 7.99718 13.9529 1.4 2.80753 -51.2925 96.2076
687 8.99718 13.9529 1.4 3.76267 -62.216 -35.0407
688 9.99718 13.9529 1.4 4.73637 -58.8987 -140.317
689 10.9972 13.9529 1.4 5.71915 -63.8202 -37.665
690 11.9972 13.9529 1.4 6.70702 -61.5679 55.3901
691 12.9972 13.9529 1.4 7.69803 -68.5933 97.8315
692 13.9972 13.9529 1.4 8.69109 -69.0609 -134.825
693 14.9972 13.9529 1.4 9.68559 -57.504 -136.051
694 15.9972 13.9529 1.4 10.6811 -62.3053 55.3238
695 16.9972 13.9529 1.4 11.6774 -67.05 -25.5415
696 17.9972 13.9529 1.4 12.6743 -62.6046 -60.8841
697 18.9972 13.9529 1.4 13.6716 -61.8756 -121.607
698 19.9972 13.9529 1.4 14.6693 -72.6216 98.4808
699 20.9972 13.9529 1.4 15.6673 -65.9095 134.944
700 21.9972 13.9529 1.4 16.6655 -68.1113 32.2437
701 22.9972 13.9529 1.4 17.6639 -68.6674 -144.081
702 23.9972 13.9529 1.4 18.6625 -66.552 -43.7956
703 24.9972 13.9529 1.4 19.6613 -69.605 133.051
704 25.9972 13.9529 1.4 20.6601 -81.7435 92.2844
705 26.9972 13.9529 1.4 21.6591 -76.8977 61.8006
706 27.9972 13.9529 1.4 22.6582 -81.3243 -119.973
707 28.9972 13.9529 1.4 23.6573 -81.5583 -155.716
708 29.9972 13.9529 1.4 24.6565 -102.01 -141.869
709 -28.0028 14.9529 1.4 33.3623 -83.2731 12.8201
710 -27.0028 14.9529 1.4 32.3623 -85.2057 169.477
711 -26.0028 14.9529 1.4 31.3623 -84.1544 45.2228
712 -25.0028 14.9529 1.4 30.3623 -85.0553 138.665
713 -24.0028 14.9529 1.4 29.3623 -88.2126 -24.0332
714 -23.0028 14.9529 1.4 28.3623 -76.0933 54.9898
715 -22.0028 14.9529 1.4 27.3623 -79.9619 73.3924
716 -21.0028 14.9529 1.4 26.3623 -87.8088 -103.914
717 -20.0028 14.9529 1.4 25.3623 -80.9272 -12.8326
718 -19.0028 14.9529 1.4 24.3623 -85.1171 43.9156
719 -18.0028 14.9529 1.4 23.3623 -87.0962 -7.65849
720 -17.0028 14.9529 1.4 22.3623 -86.7029 -121.732
721 -16.0028 14.9529 1.4 21.3623 -91.348 60.6515
722 -15.0028 14.9529 1.4 20.3623 -98.2689 147.809
723 -14.0028 14.9529 1.4 19.3623 -86.5332 103.714
724 -13.0028 14.9529 1.4 18.3623 -78.244 17.1069
725 -12.0028 14.9529 1.4 17.3623 -86.2712 75.7128
726 -11.0028 14.9529 1.4 16.3623 -77.931 104.442
727 -10.0028 14.9529 1.4 15.3623 -73.691 135.427
728 -9.00282 14.9529 1.4 14.3623 -67.0239 14.9053
729 -8.00282 14.9529 1.4 13.3623 -58.7807 51.9128
730 -7.00282 14.9529 1.4 12.3623 -55.8075 148.233
731 -6.00282 14.9529 1.4 11.3623 -53.6479 165.366
732 -5.00282 14.9529 1.4 10.3623 -63.1166 -66.4334
733 -4.00282 14.9529 1.4 9.36234 -55.8493 -57.9741
734 -3.00282 14.9529 1.4 8.36235 -47.4704 67.9568
735 -2.00282 14.9529 1.4 7.36236 -51.6376 138.519
736 -1.00282 14.9529 1.4 6.36238 -43.6656 -121.762
737 -0.00282 14.9529 1.4 5.3624 -48.2619 -71.9629
738 0.99718 14.9529 1.4 4.36243 -41.9235 59.6763
739 1.99718 14.9529 1.4 3.36248 -39.1902 60.2251
740 2.99718 14.9529 1.4 2.36257 -44.6032 -121.4
741 3.99718 14.9529 1.4 1.3628 -36.7078 -84.6078
742 4.99718 14.9529 1.4 0.364298 -24.9023 -12.5027
743 5.99718 14.9529 1.4 0.638898 -33.9063 -86.1061
744 6.99718 14.9529 1.4 1.63819 -35.9882 133.687
745 7.99718 14.9529 1.4 2.63802 -58.9444 -55.017
746 8.99718 14.9529 1.4 3.63794 -44.2556 -43.0699
747 9.99718 14.9529 1.4 4.6379 -48.1721 -101.278
748 10.9972 14.9529 1.4 5.63787 -45.7454 164.485
749 11.9972 14.9529 1.4 6.63785 -50.5655 73.0689
750 12.9972 14.9529 1.4 7.63784 -53.0932 21.2269
751 13.9972 14.9529 1.4 8.63782 -57.222 -63.2046
752 14.9972 14.9529 1.4 9.63782 -59.0782 -113.989
753 15.9972 14.9529 1.4 10.6378 -61.3387 119
754 16.9972 14.9529 1.4 11.6378 -59.4067 57.7158
755 17.9972 14.9529 1.4 12.6378 -74.575 -169.581
756 18.9972 14.9529 1.4 13.6378 -59.9218 119.09
757 19.9972 14.9529 1.4 14.6378 -59.7313 123.094
758 20.9972 14.9529 1.4 15.6378 -78.2573 -127.158
759 21.9972 14.9529 1.4 16.6378 -76.8198 91.7836
760 22.9972 14.9529 1.4 17.6378 -76.014 -114.649
761 23.9972 14.9529 1.4 18.6378 -82.9411 28.0825
762 24.9972 14.9529 1.4 19.6378 -76.9864 106.548
763 25.9972 14.9529 1.4 20.6378 -79.5643 -26.8903
764 26.9972 14.9529 1.4 21.6378 -91.7359 64.3729
765 27.9972 14.9529 1.4 22.6378 -90.4994 -158.227
766 28.9972 14.9529 1.4 23.6378 -91.5878 -2.33596
767 29.9972 14.9529 1.4 24.6378 -91.4042 48.1627
768 -28.0028 15.9529 1.4 33.3784 -74.7254 -113.289
769 -27.0028 15.9529 1.4 32.3789 -77.5937 19.38
770 -26.0028 15.9529 1.4 31.3794 -78.0055 0.381462
771 -25.0028 15.9529 1.4 30.38 -83.8718 -169.42
772 -24.0028 15.9529 1.4 29.3806 -79.5746 -48.3694
773 -23.0028 15.9529 1.4 28.3813 -84.1332 139.202
774 -22.0028 15.9529 1.4 27.382 -83.9455 -108.844
775 -21.0028 15.9529 1.4 26.3827 -83.9673 -129.022
776 -20.0028 15.9529 1.4 25.3835 -80.9413 161.6
777 -19.0028 15.9529 1.4 24.3844 -89.9813 70.7218
778 -18.0028 15.9529 1.4 23.3853 -94.5841 57.2805
779 -17.0028 15.9529 1.4 22.3864 -88.7186 -151.629
780 -16.0028 15.9529 1.4 21.3875 -84.3405 27.281
781 -15.0028 15.9529 1.4 20.3887 -82.9911 -64.0914
782 -14.0028 15.9529 1.4 19.3901 -77.9356 131.396
783 -13.0028 15.9529 1.4 18.3916 -76.0594 -139.745
784 -12.0028 15.9529 1.4 17.3933 -72.1474 -17.7873
785 -11.0028 15.9529 1.4 16.3952 -82.9545 17.7184
786 -10.0028 15.9529 1.4 15.3973 -62.1971 -67.1283
787 -9.00282 15.9529 1.4 14.3998 -61.0796 176.6
788 -8.00282 15.9529 1.4 13.4026 -58.9093 120.85
789 -7.00282 15.9529 1.4 12.4058 -49.3794 -35.7706
790 -6.00282 15.9529 1.4 11.4096 -52.5234 -31.0646
791 -5.00282 15.9529 1.4 10.4142 -59.9104 91.2622
792 -4.00282 15.9529 1.4 9.41968 -51.4096 168.173
793 -3.00282 15.9529 1.4 8.4265 -52.925 -73.8041
794 -2.00282 15.9529 1.4 7.43514 -54.4098 -21.837
795 -1.00282 15.9529 1.4 6.44645 -49.3133 12.0429
796 -0.00282 15.9529 1.4 5.46189 -45.7693 -45.0046
797 0.99718 15.9529 1.4 4.48416 -42.9618 -105.457
798 1.99718 15.9529 1.4 3.51898 -43.4818 -53.9995
799 2.99718 15.9529 1.4 2.58044 -42.9229 -64.1731
800 3.99718 15.9529 1.4 1.71294 -43.3405 5.93878
801 4.99718 15.9529 1.4 1.09984 -34.0516 -19.4222
802 5.99718 15.9529 1.4 1.21866 -47.1507 -73.7639
803 6.99718 15.9529 1.4 1.93923 -42.8038 69.0534
804 7.99718 15.9529 1.4 2.8348 -47.8224 116.367
805 8.99718 15.9529 1.4 3.78306 -45.5743 27.5911
806 9.99718 15.9529 1.4 4.75258 -54.1669 -139.582
807 10.9972 15.9529 1.4 5.73258 -44.2269 -106.779
808 11.9972 15.9529 1.4 6.71848 -54.8763 -162.65
809 12.9972 15.9529 1.4 7.70801 -51.8031 98.5007
810 13.9972 15.9529 1.4 8.69994 -52.3091 46.4333
811 14.9972 15.9529 1.4 9.69352 -64.1155 -137.738
812 15.9972 15.9529 1.4 10.6883 -48.8485 -141.87
813 16.9972 15.9529 1.4 11.684 -50.91 -143.119
814 17.9972 15.9529 1.4 12.6803 -59.1852 105.659
815 18.9972 15.9529 1.4 13.6772 -57.252 -19.2533
816 19.9972 15.9529 1.4 14.6745 -50.9597 -34.2836
817 20.9972 15.9529 1.4 15.6722 -87.3454 174.708
818 21.9972 15.9529 1.4 16.6701 -75.5707 85.2067
819 22.9972 15.9529 1.4 17.6683 -78.699 62.5944
820 23.9972 15.9529 1.4 18.6666 -81.6621 -67.0378
821 24.9972 15.9529 1.4 19.6652 -89.5108 -94.1209
822 25.9972 15.9529 1.4 20.6638 -96.3091 18.3753
823 26.9972 15.9529 1.4 21.6626 -84.3485 -64.4772
824 27.9972 15.9529 1.4 22.6615 -97.9405 -81.1616
825 28.9972 15.9529 1.4 23.6605 -118.092 109.555
826 29.9972 15.9529 1.4 24.6596 -88.516 21.7706
827 -28.0028 16.9529 1.4 33.4245 -79.1204 -82.0099
828 -27.0028 16.9529 1.4 32.4264 -81.7417 95.5526
829 -26.0028 16.9529 1.4 31.4284 -74.868 168.598
830 -25.0028 16.9529 1.4 30.4306 -84.8004 -77.921
831 -24.0028 16.9529 1.4 29.4329 -84.896 78.422
832 -23.0028 16.9529 1.4 28.4354 -95.6313 105.945
833 -22.0028 16.9529 1.4 27.4381 -79.3328 -70.2224
834 -21.0028 16.9529 1.4 26.441 -90.8648 -21.103
835 -20.0028 16.9529 1.4 25.444 -92.2964 -81.4125
836 -19.0028 16.9529 1.4 24.4474 -89.8296 -120.478
837 -18.0028 16.9529 1.4 23.451 -84.7711 -32.0626
838 -17.0028 16.9529 1.4 22.455 -76.5695 172.075
839 -16.0028 16.9529 1.4 21.4593 -84.719 -0.0232229
840 -15.0028 16.9529 1.4 20.464 -79.3919 -49.1203
841 -14.0028 16.9529 1.4 19.4693 -86.1223 61.0745
842 -13.0028 16.9529 1.4 18.4751 -77.4141 8.41185
843 -12.0028 16.9529 1.4 17.4815 -72.0067 62.7089
844 -11.0028 16.9529 1.4 16.4888 -66.8911 -24.8826
845 -10.0028 16.9529 1.4 15.4969 -56.2781 84.4965
846 -9.00282 16.9529 1.4 14.5062 -58.7621 -41.0339
847 -8.00282 16.9529 1.4 13.5169 -68.7992 103.156
848 -7.00282 16.9529 1.4 12.5292 -57.8986 58.3249
849 -6.00282 16.9529 1.4 11.5437 -57.8289 53.5857
850 -5.00282 16.9529 1.4 10.5609 -56.5052 -11.2881
851 -4.00282 16.9529 1.4 9.58161 -52.3805 -32.6572
852 -3.00282 16.9529 1.4 8.60713 -51.5218 -3.56414
853 -2.00282 16.9529 1.4 7.63926 -63.273 111.466
854 -1.00282 16.9529 1.4 6.68085 -52.4877 39.5028
855 -0.00282 16.9529 1.4 5.73665 -41.845 -107.199
856 0.99718 16.9529 1.4 4.81505 -48.6642 -164.425
857 1.99718 16.9529 1.4 3.93194 -44.5178 -111.673
858 2.99718 16.9529 1.4 3.1202 -41.3084 -177.749
859 3.99718 16.9529 1.4 2.45175 -49.7951 -40.7841
860 4.99718 16.9529 1.4 2.0704 -42.8504 -9.95607
861 5.99718 16.9529 1.4 2.1359 -40.4402 -167.014
862 6.99718 16.9529 1.4 2.61487 -63.161 174.343
863 7.99718 16.9529 1.4 3.33362 -44.3032 -121.21
864 8.99718 16.9529 1.4 4.16995 -43.4743 -159.669
865 9.99718 16.9529 1.4 5.06596 -47.2333 71.6827
866 10.9972 16.9529 1.4 5.99495 -48.5885 -118.877
867 11.9972 16.9529 1.4 6.9437 -57.247 57.9081
868 12.9972 16.9529 1.4 7.90509 -52.6311 152.922
869 13.9972 16.9529 1.4 8.87501 -55.622 -163.349
870 14.9972 16.9529 1.4 9.85096 -55.9829 -83.8834
871 15.9972 16.9529 1.4 10.8313 -50.5343 -62.9115
872 16.9972 16.9529 1.4 11.8149 -53.6881 -84.6751
873 17.9972 16.9529 1.4 12.8011 -55.4455 -131.648
874 18.9972 16.9529 1.4 13.7892 -54.5008 60.5147
875 19.9972 16.9529 1.4 14.779 -50.3795 67.2552
876 20.9972 16.9529 1.4 15.77 -73.5661 91.8882
877 21.9972 16.9529 1.4 16.7622 -77.2961 116.536
878 22.9972 16.9529 1.4 17.7551 -86.8331 -157.234
879 23.9972 16.9529 1.4 18.7489 -83.8562 -125.532
880 24.9972 16.9529 1.4 19.7433 -97.7183 -144.799
881 25.9972 16.9529 1.4 20.7382 -95.4641 101.798
882 26.9972 16.9529 1.4 21.7335 -83.1568 5.12506
883 27.9972 16.9529 1.4 22.7293 -81.3248 -23.4162
884 28.9972 16.9529 1.4 23.7255 -89.4494 166.921
885 29.9972 16.9529 1.4 24.7219 -96.9287 95.0216
886 -28.0028 17.9529 1.4 33.5003 -75.7613 72.6109
887 -27.0028 17.9529 1.4 32.5046 -80.58 167.821
888 -26.0028 17.9529 1.4 31.5091 -86.1591 86.1949
889 -25.0028 17.9529 1.4 30.5139 -98.8467 -26.673
890 -24.0028 17.9529 1.4 29.5191 -81.7869 24.6088
891 -23.0028 17.9529 1.4 28.5246 -82.8895 -171.738
892 -22.0028 17.9529 1.4 27.5304 -90.819 164.694
893 -21.0028 17.9529 1.4 26.5368 -91.4183 -114.254
894 -20.0028 17.9529 1.4 25.5436 -93.901 111.099
895 -19.0028 17.9529 1.4 24.551 -85.6589 110.855
896 -18.0028 17.9529 1.4 23.559 -92.7754 152.713
897 -17.0028 17.9529 1.4 22.5677 -79.5786 -36.0125
898 -16.0028 17.9529 1.4 21.5773 -79.2294 -150.59
899 -15.0028 17.9529 1.4 20.5877 -77.6062 -175.07
900 -14.0028 17.9529 1.4 19.5992 -95.6904 142.359
901 -13.0028 17.9529 1.4 18.612 -66.936 -127.285
902 -12.0028 17.9529 1.4 17.6261 -66.3556 -115.331
903 -11.0028 17.9529 1.4 16.642 -65.2816 -146.535
904 -10.0028 17.9529 1.4 15.6599 -65.9182 -152.788
905 -9.00282 17.9529 1.4 14.6802 -77.2846 9.7544
906 -8.00282 17.9529 1.4 13.7034 -61.6487 -161.522
907 -7.00282 17.9529 1.4 12.7302 -59.3471 56.1259
908 -6.00282 17.9529 1.4 11.7615 -65.7479 -73.9066
909 -5.00282 17.9529 1.4 10.7986 -60.8045 -96.642
910 -4.00282 17.9529 1.4 9.84298 -69.4351 -33.0597
911 -3.00282 17.9529 1.4 8.89717 -51.4862 -57.807
912 -2.00282 17.9529 1.4 7.96462 -57.9845 124.27
913 -1.00282 17.9529 1.4 7.05058 -55.124 12.2584
914 -0.00282 17.9529 1.4 6.16329 -42.3292 170.393
915 0.99718 17.9529 1.4 5.31616 -62.4062 -40.6699
916 1.99718 17.9529 1.4 4.53178 -53.1659 -58.3801
917 2.99718 17.9529 1.4 3.84871 -48.3828 -121.033
918 3.99718 17.9529 1.4 3.32987 -49.9727 -114.995
919 4.99718 17.9529 1.4 3.05998 -42.0136 -66.8753
920 5.99718 17.9529 1.4 3.10467 -43.7443 -122.218
921 6.99718 17.9529 1.4 3.45173 -45.6854 27.7089
922 7.99718 17.9529 1.4 4.02367 -62.4631 68.342
923 8.99718 17.9529 1.4 4.73977 -45.3769 70.6982
924 9.99718 17.9529 1.4 5.54445 -67.4137 74.7266
925 10.9972 17.9529 1.4 6.4044 -52.5753 127.511
926 11.9972 17.9529 1.4 7.30013 -58.0372 88.766
927 12.9972 17.9529 1.4 8.21993 -48.1009 99.2085
928 13.9972 17.9529 1.4 9.15657 -55.7207 -136.995
929 14.9972 17.9529 1.4 10.1054 -69.3481 -32.1873
930 15.9972 17.9529 1.4 11.0632 -66.4174 11.7282
931 16.9972 17.9529 1.4 12.0279 -59.2628 -6.84336
932 17.9972 17.9529 1.4 12.9979 -65.5238 -81.1058
933 18.9972 17.9529 1.4 13.9721 -66.7283 -78.1067
934 19.9972 17.9529 1.4 14.9498 -62.236 91.3698
935 20.9972 17.9529 1.4 15.9302 -75.0293 -66.8232
936 21.9972 17.9529 1.4 16.9129 -77.6255 -46.4929
937 22.9972 17.9529 1.4 17.8975 -77.5334 8.91377
938 23.9972 17.9529 1.4 18.8838 -76.5308 38.7824
939 24.9972 17.9529 1.4 19.8714 -85.4349 91.5079
940 25.9972 17.9529 1.4 20.8602 -96.3039 132.057
941 26.9972 17.9529 1.4 21.85 -86.8464 -152.808
942 27.9972 17.9529 1.4 22.8407 -91.8782 13.2939
943 28.9972 17.9529 1.4 23.8322 -91.2824 -140.915
944 29.9972 17.9529 1.4 24.8244 -122.918 -87.4515
945 -28.0028 18.9529 1.4 33.6058 -100.32 123.111
946 -27.0028 18.9529 1.4 32.6133 -96.216 -164.699
947 -26.0028 18.9529 1.4 31.6212 -98.8257 109.969
948 -25.0028 18.9529 1.4 30.6297 -110.117 -139.961
949 -24.0028 18.9529 1.4 29.6387 -91.67 -144.719
950 -23.0028 18.9529 1.4 28.6483 -88.3765 -177.698
951 -22.0028 18.9529 1.4 27.6587 -80.7224 -106.895
952 -21.0028 18.9529 1.4 26.6698 -83.4373 71.4521
953 -20.0028 18.9529 1.4 25.6818 -104.254 -171.077
954 -19.0028 18.9529 1.4 24.6947 -91.8813 111.486
955 -18.0028 18.9529 1.4 23.7087 -94.4644 42.9587
956 -17.0028 18.9529 1.4 22.724 -74.1009 -91.263
957 -16.0028 18.9529 1.4 21.7406 -77.4425 139.795
958 -15.0028 18.9529 1.4 20.7589 -85.2855 103.334
959 -14.0028 18.9529 1.4 19.7789 -73.7884 160.027
960 -13.0028 18.9529 1.4 18.8011 -71.0583 142.546
961 -12.0028 18.9529 1.4 17.8257 -65.6327 94.3264
962 -11.0028 18.9529 1.4 16.8533 -65.1465 -19.7234
963 -10.0028 18.9529 1.4 15.8842 -57.5475 -82.8246
964 -9.00282 18.9529 1.4 14.9192 -60.2069 -70.2087
965 -8.00282 18.9529 1.4 13.9592 -54.7218 -43.3358
966 -7.00282 18.9529 1.4 13.0052 -57.5846 -33.0773
967 -6.00282 18.9529 1.4 12.0586 -54.4354 -45.6351
968 -5.00282 18.9529 1.4 11.1214 -53.9414 -176.263
969 -4.00282 18.9529 1.4 10.1961 -61.0736 -68.0991
970 -3.00282 18.9529 1.4 9.28637 -55.9328 -123.304
971 -2.00282 18.9529 1.4 8.39715 -60.04 -60.9043
972 -1.00282 18.9529 1.4 7.53575 -50.4978 20.0912
973 -0.00282 18.9529 1.4 6.7129 -50.7576 46.2537
974 0.99718 18.9529 1.4 5.94462 -47.7681 84.8304
975 1.99718 18.9529 1.4 5.2549 -46.9559 54.7081
976 2.99718 18.9529 1.4 4.67862 -50.7978 -147.773
977 3.99718 18.9529 1.4 4.26204 -40.8561 20.6973
978 4.99718 18.9529 1.4 4.05468 -42.2921 -143.245
979 5.99718 18.9529 1.4 4.08851 -57.4401 -151.382
980 6.99718 18.9529 1.4 4.35791 -60.3056 -20.1319
981 7.99718 18.9529 1.4 4.82357 -51.4249 -111.776
982 8.99718 18.9529 1.4 5.43529 -44.9155 -130.611
983 9.99718 18.9529 1.4 6.14962 -53.8519 -113.062
984 10.9972 18.9529 1.4 6.93493 -52.2214 -23.1896
985 11.9972 18.9529 1.4 7.76973 -50.9998 53.9559
986 12.9972 18.9529 1.4 8.63969 -47.1589 70.6133
987 13.9972 18.9529 1.4 9.53518 -70.9504 114.444
988 14.9972 18.9529 1.4 10.4497 -64.0497 16.7074
989 15.9972 18.9529 1.4 11.3785 -57.3082 125.954
990 16.9972 18.9529 1.4 12.3185 -58.2353 -103.725
991 17.9972 18.9529 1.4 13.2673 -65.9725 125.552
992 18.9972 18.9529 1.4 14.2231 -54.5547 156.44
993 19.9972 18.9529 1.4 15.1846 -68.1227 39.7729
994 20.9972 18.9529 1.4 16.1508 -70.9631 1.29267
995 21.9972 18.9529 1.4 17.1209 -71.1823 152.793
996 22.9972 18.9529 1.4 18.0942 -77.5617 -110.683
997 23.9972 18.9529 1.4 19.0703 -83.1964 -124.223
998 24.9972 18.9529 1.4 20.0487 -81.7009 -71.4631
999 25.9972 18.9529 1.4 21.0292 -82.5466 -112.957
1000 26.9972 18.9529 1.4 22.0114 -92.6067 -113.892
1001 27.9972 18.9529 1.4 22.9951 -94.1961 107.703
1002 28.9972 18.9529 1.4 23.9802 -95.8429 57.1847
1003 29.9972 18.9529 1.4 24.9665 -100.929 -156.662
1004 -28.0028 19.9529 1.4 33.7406 -123.567 174.311
1005 -27.0028 19.9529 1.4 32.7521 -107.22 118.026
1006 -26.0028 19.9529 1.4 31.7644 -93.0391 -175.914
1007 -25.0028 19.9529 1.4 30.7775 -98.1616 43.0931
1008 -24.0028 19.9529 1.4 29.7914 -80.7581 33.3265
1009 -23.0028 19.9529 1.4 28.8063 -90.2808 -159.459
1010 -22.0028 19.9529 1.4 27.8223 -97.571 -21.8482
1011 -21.0028 19.9529 1.4 26.8394 -97.7284 168.87
1012 -20.0028 19.9529 1.4 25.8579 -100.861 170.458
1013 -19.0028 19.9529 1.4 24.8778 -93.5628 153.676
1014 -18.0028 19.9529 1.4 23.8994 -90.2582 141.663
1015 -17.0028 19.9529 1.4 22.9228 -80.1866 -160.94
1016 -16.0028 19.9529 1.4 21.9484 -69.2632 62.717
1017 -15.0028 19.9529 1.4 20.9764 -70.8826 18.3246
1018 -14.0028 19.9529 1.4 20.0071 -70.5723 20.5766
1019 -13.0028 19.9529 1.4 19.041 -66.858 -43.0107
1020 -12.0028 19.9529 1.4 18.0786 -69.0364 -168.742
1021 -11.0028 19.9529 1.4 17.1204 -67.1129 50.8665
1022 -10.0028 19.9529 1.4 16.1674 -70.2396 -30.5099
1023 -9.00282 19.9529 1.4 15.2204 -53.3204 -65.8475
1024 -8.00282 19.9529 1.4 14.2806 -63.7224 -88.6544
1025 -7.00282 19.9529 1.4 13.3496 -57.8446 -37.9468
1026 -6.00282 19.9529 1.4 12.4293 -62.3751 -149.246
1027 -5.00282 19.9529 1.4 11.5223 -69.5277 129.233
1028 -4.00282 19.9529 1.4 10.6319 -54.8208 -105.489
1029 -3.00282 19.9529 1.4 9.76287 -53.1691 -74.6831
1030 -2.00282 19.9529 1.4 8.92127 -47.9887 -156.191
1031 -1.00282 19.9529 1.4 8.11569 -55.8387 -173.758
1032 -0.00282 19.9529 1.4 7.35799 -47.8602 -98.1732
1033 0.99718 19.9529 1.4 6.66449 -55.9647 -134.424
1034 1.99718 19.9529 1.4 6.0573 -54.6363 -38.5613
1035 2.99718 19.9529 1.4 5.56475 -57.1839 23.7972
1036 3.99718 19.9529 1.4 5.21938 -44.946 6.50736
1037 4.99718 19.9529 1.4 5.05147 -43.495 -165.105
1038 5.99718 19.9529 1.4 5.07867 -48.6075 162.043
1039 6.99718 19.9529 1.4 5.29795 -58.1844 81.3219
1040 7.99718 19.9529 1.4 5.68716 -52.1279 174.114
1041 8.99718 19.9529 1.4 6.21444 -50.4534 167.062
1042 9.99718 19.9529 1.4 6.84797 -60.6882 -58.2342
1043 10.9972 19.9529 1.4 7.5611 -51.6392 80.5069
1044 11.9972 19.9529 1.4 8.33341 -57.1087 -56.3598
1045 12.9972 19.9529 1.4 9.14993 -53.5638 -96.5039
1046 13.9972 19.9529 1.4 9.99983 -51.1426 -30.635
1047 14.9972 19.9529 1.4 10.8753 -54.8629 -1.43819
1048 15.9972 19.9529 1.4 11.7706 -55.5582 32.1053
1049 16.9972 19.9529 1.4 12.6816 -51.7264 -142.358
1050 17.9972 19.9529 1.4 13.6051 -57.2414 61.7595
1051 18.9972 19.9529 1.4 14.5387 -53.5036 127.509
1052 19.9972 19.9529 1.4 15.4806 -64.8034 70.6896
1053 20.9972 19.9529 1.4 16.4294 -69.9686 -22.9989
1054 21.9972 19.9529 1.4 17.3839 -71.6305 170.768
1055 22.9972 19.9529 1.4 18.3433 -71.8686 -5.16398
1056 23.9972 19.9529 1.4 19.3068 -79.0942 112.597
1057 24.9972 19.9529 1.4 20.2738 -92.4843 -111.609
1058 25.9972 19.9529 1.4 21.2439 -93.161 131.219
1059 26.9972 19.9529 1.4 22.2166 -85.8658 104.77
1060 27.9972 19.9529 1.4 23.1917 -98.7784 -85.047
1061 28.9972 19.9529 1.4 24.1688 -96.0746 139.982
1062 29.9972 19.9529 1.4 25.1477 -116.858 -65.4511
