#Rx
# X(m), Y(m), Z(m), Distance(m), Power (dBm) Phase (deg)
1 -28.0028 2.95289 1.4 51.4926 -250 0
2 -27.2528 2.95289 1.4 50.7876 -250 0
3 -26.5028 2.95289 1.4 50.0839 -250 0
4 -25.7528 2.95289 1.4 49.3816 -250 0
5 -25.0028 2.95289 1.4 48.6806 -250 0
6 -24.2528 2.95289 1.4 47.9812 -250 0
7 -23.5028 2.95289 1.4 47.2833 -250 0
8 -22.7528 2.95289 1.4 46.587 -250 0
9 -22.0028 2.95289 1.4 45.8925 -250 0
10 -21.2528 2.95289 1.4 45.1997 -250 0
11 -20.5028 2.95289 1.4 44.5087 -121.013 36.6656
12 -19.7528 2.95289 1.4 43.8197 -118.253 145.684
13 -19.0028 2.95289 1.4 43.1327 -108.704 -149.384
14 -18.2528 2.95289 1.4 42.4479 -113.66 -116.088
15 -17.5028 2.95289 1.4 41.7653 -186.183 172.477
16 -16.7528 2.95289 1.4 41.085 -111.323 108.818
17 -16.0028 2.95289 1.4 40.4073 -96.632 29.4549
18 -15.2528 2.95289 1.4 39.7321 -89.6767 -87.2435
19 -14.5028 2.95289 1.4 39.0596 -101.505 -87.6739
20 -13.7528 2.95289 1.4 38.39 -96.1945 -105.35
21 -13.0028 2.95289 1.4 37.7235 -89.9562 43.9943
22 -12.2528 2.95289 1.4 37.0601 -92.2828 -74.8307
23 -11.5028 2.95289 1.4 36.4001 -91.6356 6.14584
24 -10.7528 2.95289 1.4 35.7437 -92.028 135.944
25 -10.0028 2.95289 1.4 35.091 -89.0712 35.6325
26 -9.25282 2.95289 1.4 34.4422 -103.731 -148.321
27 -8.50282 2.95289 1.4 33.7977 -96.5054 175.155
28 -7.75282 2.95289 1.4 33.1576 -95.6676 -174.621
29 -7.00282 2.95289 1.4 32.5221 -91.3548 -101.628
30 -6.25282 2.95289 1.4 31.8917 -96.1197 -147.977
31 -5.50282 2.95289 1.4 31.2666 -111.909 -27.9139
32 -4.75282 2.95289 1.4 30.647 -103.68 22.6775
33 -4.00282 2.95289 1.4 30.0334 -106.617 164.013
34 -3.25282 2.95289 1.4 29.4261 -103.038 -167.007
35 -2.50282 2.95289 1.4 28.8255 -90.2866 95.41
36 -1.75282 2.95289 1.4 28.2321 -91.137 -158.863
37 -1.00282 2.95289 1.4 27.6463 -92.6959 64.5322
38 -0.25282 2.95289 1.4 27.0686 -103.074 -37.1483
39 0.49718 2.95289 1.4 26.4995 -88.611 116.813
40 1.24718 2.95289 1.4 25.9397 -91.1117 -49.7068
41 1.99718 2.95289 1.4 25.3896 -83.9599 -9.70013
42 2.74718 2.95289 1.4 24.85 -93.8189 -45.19
43 3.49718 2.95289 1.4 24.3216 -90.3154 -5.80344
44 4.24718 2.95289 1.4 23.8051 -71.6038 153.027
45 4.99718 2.95289 1.4 23.3012 -73.1199 -99.1947
46 5.74718 2.95289 1.4 22.8109 -70.5631 169.233
47 6.49718 2.95289 1.4 22.3351 -67.6398 -171.735
48 7.24718 2.95289 1.4 21.8745 -71.4099 139.778
49 7.99718 2.95289 1.4 21.4304 -71.7171 -63.1596
50 8.74718 2.95289 1.4 21.0036 -86.1717 -29.1597
51 9.49718 2.95289 1.4 20.5954 -81.6597 -152.244
52 10.2472 2.95289 1.4 20.2067 -70.8099 -44.4101
53 10.9972 2.95289 1.4 19.8387 -66.5109 -2.65459
54 11.7472 2.95289 1.4 19.4927 -71.1845 -153.443
55 12.4972 2.95289 1.4 19.1698 -64.008 -141.011
56 13.2472 2.95289 1.4 18.8713 -70.9847 155.706
57 13.9972 2.95289 1.4 18.5981 -68.6674 133.732
58 14.7472 2.95289 1.4 18.3516 -77.5648 166.656
59 15.4972 2.95289 1.4 18.1328 -82.821 -115.485
60 16.2472 2.95289 1.4 17.9426 -72.3612 -57.0455
61 16.9972 2.95289 1.4 17.7821 -77.9639 -20.708
62 17.7472 2.95289 1.4 17.6521 -51.1219 9.94068
63 18.4972 2.95289 1.4 17.5531 -63.8264 -7.09505
64 19.2472 2.95289 1.4 17.4858 -66.8697 4.98252
65 19.9972 2.95289 1.4 17.4505 -55.4893 167.776
66 20.7472 2.95289 1.4 17.4474 -59.2794 168.025
67 21.4972 2.95289 1.4 17.4764 -63.5013 70.9266
68 22.2472 2.95289 1.4 17.5376 -66.0809 -94.0447
69 22.9972 2.95289 1.4 17.6305 -63.3782 -12.7946
70 23.7472 2.95289 1.4 17.7546 -52.0292 124.837
71 24.4972 2.95289 1.4 17.9092 -61.9533 109.612
72 25.2472 2.95289 1.4 18.0937 -70.7198 -8.2606
73 25.9972 2.95289 1.4 18.307 -60.9045 179.57
74 26.7472 2.95289 1.4 18.5483 -66.3922 -20.895
75 27.4972 2.95289 1.4 18.8163 -78.3922 26.3055
76 28.2472 2.95289 1.4 19.1101 -85.2624 74.4337
77 28.9972 2.95289 1.4 19.4284 -68.0253 97.4546
78 29.7472 2.95289 1.4 19.77 -59.5574 21.6869
79 30.4972 2.95289 1.4 20.1338 -72.1574 -60.9611
80 -28.0028 3.70289 1.4 51.2434 -250 0
81 -27.2528 3.70289 1.4 50.5349 -250 0
82 -26.5028 3.70289 1.4 49.8276 -250 0
83 -25.7528 3.70289 1.4 49.1216 -250 0
84 -25.0028 3.70289 1.4 48.4169 -250 0
85 -24.2528 3.70289 1.4 47.7136 -250 0
86 -23.5028 3.70289 1.4 47.0118 -250 0
87 -22.7528 3.70289 1.4 46.3114 -250 0
88 -22.0028 3.70289 1.4 45.6126 -250 0
89 -21.2528 3.70289 1.4 44.9155 -250 0
90 -20.5028 3.70289 1.4 44.2201 -132.58 -31.5172
91 -19.7528 3.70289 1.4 43.5266 -137.734 58.1323
92 -19.0028 3.70289 1.4 42.8349 -126.499 -73.9703
93 -18.2528 3.70289 1.4 42.1452 -118.006 49.577
94 -17.5028 3.70289 1.4 41.4576 -143.069 113.401
95 -16.7528 3.70289 1.4 40.7722 -96.8429 70.5742
96 -16.0028 3.70289 1.4 40.0892 -106.02 -53.2297
97 -15.2528 3.70289 1.4 39.4085 -100.187 -98.1698
98 -14.5028 3.70289 1.4 38.7305 -95.6468 -134.626
99 -13.7528 3.70289 1.4 38.0551 -100.143 108.236
100 -13.0028 3.70289 1.4 37.3826 -97.852 119.536
101 -12.2528 3.70289 1.4 36.713 -88.6844 -71.658
102 -11.5028 3.70289 1.4 36.0467 -87.7457 -55.7626
103 -10.7528 3.70289 1.4 35.3837 -78.8346 -123.546
104 -10.0028 3.70289 1.4 34.7242 -90.0367 99.8939
105 -9.25282 3.70289 1.4 34.0685 -91.6741 80.0827
106 -8.50282 3.70289 1.4 33.4167 -93.6121 -82.9966
107 -7.75282 3.70289 1.4 32.7692 -104.375 -56.687
108 -7.00282 3.70289 1.4 32.1261 -111.457 -97.3011
109 -6.25282 3.70289 1.4 31.4877 -122.977 -176.911
110 -5.50282 3.70289 1.4 30.8544 -107.162 22.0196
111 -4.75282 3.70289 1.4 30.2264 -98.7255 -42.4854
112 -4.00282 3.70289 1.4 29.604 -113.785 93.646
113 -3.25282 3.70289 1.4 28.9878 -92.2053 -5.25009
114 -2.50282 3.70289 1.4 28.3779 -93.7403 135.614
115 -1.75282 3.70289 1.4 27.775 -95.3158 -85.3594
116 -1.00282 3.70289 1.4 27.1793 -107.075 -22.3911
117 -0.25282 3.70289 1.4 26.5914 -109.063 2.10385
118 0.49718 3.70289 1.4 26.0119 -84.9619 -162.527
119 1.24718 3.70289 1.4 25.4414 -102.799 -71.9827
120 1.99718 3.70289 1.4 24.8803 -88.8723 -138.284
121 2.74718 3.70289 1.4 24.3294 -93.527 -179.848
122 3.49718 3.70289 1.4 23.7894 -83.9233 121.984
123 4.24718 3.70289 1.4 23.2611 -70.5185 -72.7927
124 4.99718 3.70289 1.4 22.7452 -83.3846 -66.4339
125 5.74718 3.70289 1.4 22.2426 -73.816 144.384
126 6.49718 3.70289 1.4 21.7543 -68.1993 87.0363
127 7.24718 3.70289 1.4 21.2812 -76.997 114.604
128 7.99718 3.70289 1.4 20.8244 -71.2558 -104.027
129 8.74718 3.70289 1.4 20.385 -111.117 -77.1153
130 9.49718 3.70289 1.4 19.9641 -76.7684 111.942
131 10.2472 3.70289 1.4 19.5629 -72.9585 82.595
132 10.9972 3.70289 1.4 19.1826 -69.4672 -107.033
133 11.7472 3.70289 1.4 18.8245 -67.8134 41.459
134 12.4972 3.70289 1.4 18.49 -64.2219 -141.485
135 13.2472 3.70289 1.4 18.1802 -63.9654 -49.8283
136 13.9972 3.70289 1.4 17.8965 -73.3801 30.0331
137 14.7472 3.70289 1.4 17.6402 -70.0939 149.579
138 15.4972 3.70289 1.4 17.4124 -81.0258 -161.716
139 16.2472 3.70289 1.4 17.2144 -75.8377 95.1234
140 16.9972 3.70289 1.4 17.047 -79.4636 -5.91863
141 17.7472 3.70289 1.4 16.9113 -52.5125 48.5337
142 18.4972 3.70289 1.4 16.808 -63.1708 27.5024
143 19.2472 3.70289 1.4 16.7376 -65.2306 86.6647
144 19.9972 3.70289 1.4 16.7007 -55.8906 171.208
145 20.7472 3.70289 1.4 16.6975 -65.6929 161.879
146 21.4972 3.70289 1.4 16.7279 -70.7659 -116.411
147 22.2472 3.70289 1.4 16.7917 -74.7214 -74.6061
148 22.9972 3.70289 1.4 16.8887 -60.3853 164.365
149 23.7472 3.70289 1.4 17.0182 -55.8224 -126.678
150 24.4972 3.70289 1.4 17.1795 -58.0662 -103.019
151 25.2472 3.70289 1.4 17.3717 -60.0225 8.57739
152 25.9972 3.70289 1.4 17.5938 -65.0174 -142.325
153 26.7472 3.70289 1.4 17.8447 -78.9965 -87.4961
154 27.4972 3.70289 1.4 18.1232 -61.6397 7.43442
155 28.2472 3.70289 1.4 18.428 -68.3454 -32.6618
156 28.9972 3.70289 1.4 18.7579 -59.2197 -99.6976
157 29.7472 3.70289 1.4 19.1115 -76.5736 -173.902
158 30.4972 3.70289 1.4 19.4875 -69.4909 -114.273
159 -28.0028 4.45289 1.4 51.004 -250 0
160 -27.2528 4.45289 1.4 50.2921 -250 0
161 -26.5028 4.45289 1.4 49.5814 -250 0
162 -25.7528 4.45289 1.4 48.8718 -250 0
163 -25.0028 4.45289 1.4 48.1635 -250 0
164 -24.2528 4.45289 1.4 47.4564 -250 0
165 -23.5028 4.45289 1.4 46.7507 -250 0
166 -22.7528 4.45289 1.4 46.0464 -250 0
167 -22.0028 4.45289 1.4 45.3435 -250 0
168 -21.2528 4.45289 1.4 44.6422 -250 0
169 -20.5028 4.45289 1.4 43.9425 -158.579 -9.34235
170 -19.7528 4.45289 1.4 43.2444 -132.382 -10.6315
171 -19.0028 4.45289 1.4 42.5482 -133.573 -173.749
172 -18.2528 4.45289 1.4 41.8538 -132.84 75.2094
173 -17.5028 4.45289 1.4 41.1613 -140.216 -54.8689
174 -16.7528 4.45289 1.4 40.4709 -98.607 1.30807
175 -16.0028 4.45289 1.4 39.7827 -103.122 152.166
176 -15.2528 4.45289 1.4 39.0967 -103.119 -29.852
177 -14.5028 4.45289 1.4 38.4131 -102.31 -174.389
178 -13.7528 4.45289 1.4 37.7321 -100.293 -141.422
179 -13.0028 4.45289 1.4 37.0537 -93.8043 -138.696
180 -12.2528 4.45289 1.4 36.3781 -86.1726 69.9224
181 -11.5028 4.45289 1.4 35.7055 -87.1528 -52.3721
182 -10.7528 4.45289 1.4 35.0361 -102.039 -7.75108
183 -10.0028 4.45289 1.4 34.3699 -90.7302 -165.847
184 -9.25282 4.45289 1.4 33.7073 -98.0554 -51.0861
185 -8.50282 4.45289 1.4 33.0484 -90.5491 -129.984
186 -7.75282 4.45289 1.4 32.3935 -96.9313 150.82
187 -7.00282 4.45289 1.4 31.7428 -92.748 100.539
188 -6.25282 4.45289 1.4 31.0966 -99.6023 121.765
189 -5.50282 4.45289 1.4 30.4551 -103.967 59.5795
190 -4.75282 4.45289 1.4 29.8187 -112.537 -68.3256
191 -4.00282 4.45289 1.4 29.1877 -121.559 83.6247
192 -3.25282 4.45289 1.4 28.5624 -93.8711 -6.05724
193 -2.50282 4.45289 1.4 27.9433 -93.5049 177.996
194 -1.75282 4.45289 1.4 27.3307 -104.816 -34.8144
195 -1.00282 4.45289 1.4 26.7252 -109.963 -117.352
196 -0.25282 4.45289 1.4 26.1271 -100.732 -101.109
197 0.49718 4.45289 1.4 25.5371 -81.8841 2.66287
198 1.24718 4.45289 1.4 24.9556 -95.4532 -66.388
199 1.99718 4.45289 1.4 24.3834 -92.6074 165.927
200 2.74718 4.45289 1.4 23.821 -99.6903 153.202
201 3.49718 4.45289 1.4 23.2692 -88.1994 -145.752
202 4.24718 4.45289 1.4 22.7288 -68.3079 63.7229
203 4.99718 4.45289 1.4 22.2005 -65.1989 172.448
204 5.74718 4.45289 1.4 21.6853 -68.154 -26.7735
205 6.49718 4.45289 1.4 21.1842 -71.1248 12.7435
206 7.24718 4.45289 1.4 20.6981 -68.6405 -42.4446
207 7.99718 4.45289 1.4 20.2281 -67.3289 -60.1145
208 8.74718 4.45289 1.4 19.7755 -70.9765 104.51
209 9.49718 4.45289 1.4 19.3413 -78.6363 -18.7234
210 10.2472 4.45289 1.4 18.9269 -71.0669 129.783
211 10.9972 4.45289 1.4 18.5335 -66.3126 -104.191
212 11.7472 4.45289 1.4 18.1627 -63.4722 86.1107
213 12.4972 4.45289 1.4 17.8157 -61.1474 -166.898
214 13.2472 4.45289 1.4 17.494 -68.5855 -96.3348
215 13.9972 4.45289 1.4 17.199 -75.7384 -56.265
216 14.7472 4.45289 1.4 16.9321 -83.961 -163.452
217 15.4972 4.45289 1.4 16.6947 -73.7487 -73.8777
218 16.2472 4.45289 1.4 16.488 -75.8689 -139.252
219 16.9972 4.45289 1.4 16.3132 -74.8876 53.7522
220 17.7472 4.45289 1.4 16.1713 -59.6675 -79.9119
221 18.4972 4.45289 1.4 16.0632 -59.8312 15.2903
222 19.2472 4.45289 1.4 15.9896 -59.7871 132.505
223 19.9972 4.45289 1.4 15.951 -61.3566 -35.5454
224 20.7472 4.45289 1.4 15.9476 -63.3246 -140.219
225 21.4972 4.45289 1.4 15.9794 -65.7649 -138.724
226 22.2472 4.45289 1.4 16.0463 -60.5058 162.7
227 22.9972 4.45289 1.4 16.1477 -60.8069 4.07427
228 23.7472 4.45289 1.4 16.2831 -65.53 12.9663
229 24.4972 4.45289 1.4 16.4516 -50.6575 -40.6935
230 25.2472 4.45289 1.4 16.6522 -65.3409 96.0644
231 25.9972 4.45289 1.4 16.8838 -74.9402 140.241
232 26.7472 4.45289 1.4 17.1451 -75.8034 106.361
233 27.4972 4.45289 1.4 17.4348 -64.39 -142.679
234 28.2472 4.45289 1.4 17.7514 -59.7079 155.342
235 28.9972 4.45289 1.4 18.0936 -65.6059 154.214
236 29.7472 4.45289 1.4 18.4599 -70.5223 89.1594
237 30.4972 4.45289 1.4 18.849 -70.9385 -83.8296
238 -28.0028 5.20289 1.4 50.7745 -250 0
239 -27.2528 5.20289 1.4 50.0594 -250 0
240 -26.5028 5.20289 1.4 49.3453 -250 0
241 -25.7528 5.20289 1.4 48.6323 -250 0
242 -25.0028 5.20289 1.4 47.9204 -250 0
243 -24.2528 5.20289 1.4 47.2097 -250 0
244 -23.5028 5.20289 1.4 46.5002 -250 0
245 -22.7528 5.20289 1.4 45.7921 -250 0
246 -22.0028 5.20289 1.4 45.0852 -250 0
247 -21.2528 5.20289 1.4 44.3798 -250 0
248 -20.5028 5.20289 1.4 43.6759 -174.113 36.6319
249 -19.7528 5.20289 1.4 42.9736 -128.757 62.3684
250 -19.0028 5.20289 1.4 42.2729 -130.716 -156.177
251 -18.2528 5.20289 1.4 41.5738 -130.502 -149.288
252 -17.5028 5.20289 1.4 40.8767 -126.301 99.1133
253 -16.7528 5.20289 1.4 40.1814 -98.0735 96.4575
254 -16.0028 5.20289 1.4 39.4881 -108.765 121.548
255 -15.2528 5.20289 1.4 38.7969 -111.625 -54.1678
256 -14.5028 5.20289 1.4 38.1079 -115.338 -44.2361
257 -13.7528 5.20289 1.4 37.4213 -85.2895 -47.8343
258 -13.0028 5.20289 1.4 36.7372 -90.9635 -79.2585
259 -12.2528 5.20289 1.4 36.0557 -84.7441 104.408
260 -11.5028 5.20289 1.4 35.377 -100.259 71.7275
261 -10.7528 5.20289 1.4 34.7012 -86.946 88.0919
262 -10.0028 5.20289 1.4 34.0285 -94.647 -68.8807
263 -9.25282 5.20289 1.4 33.3591 -94.2079 56.9018
264 -8.50282 5.20289 1.4 32.6932 -95.1892 -135.133
265 -7.75282 5.20289 1.4 32.031 -83.9116 95.0332
266 -7.00282 5.20289 1.4 31.3728 -97.4646 -48.7753
267 -6.25282 5.20289 1.4 30.7188 -101.928 -69.5285
268 -5.50282 5.20289 1.4 30.0692 -96.2769 -139.128
269 -4.75282 5.20289 1.4 29.4245 -98.7683 -173.892
270 -4.00282 5.20289 1.4 28.7848 -116.11 18.5476
271 -3.25282 5.20289 1.4 28.1506 -85.6918 -8.93462
272 -2.50282 5.20289 1.4 27.5222 -84.1843 167.397
273 -1.75282 5.20289 1.4 26.9001 -101.053 9.52092
274 -1.00282 5.20289 1.4 26.2846 -99.3323 125.682
275 -0.25282 5.20289 1.4 25.6763 -95.6951 -121.37
276 0.49718 5.20289 1.4 25.0756 -78.4836 -22.793
277 1.24718 5.20289 1.4 24.4832 -86.5012 -73.3341
278 1.99718 5.20289 1.4 23.8997 -93.3205 -88.1058
279 2.74718 5.20289 1.4 23.3256 -90.1098 124.779
280 3.49718 5.20289 1.4 22.7618 -69.412 -38.1862
281 4.24718 5.20289 1.4 22.2091 -64.6451 147.319
282 4.99718 5.20289 1.4 21.6681 -64.3204 -57.7471
283 5.74718 5.20289 1.4 21.14 -65.2452 66.8322
284 6.49718 5.20289 1.4 20.6256 -68.1511 139.47
285 7.24718 5.20289 1.4 20.126 -70.3832 -141.751
286 7.99718 5.20289 1.4 19.6424 -65.1168 -178.507
287 8.74718 5.20289 1.4 19.1759 -68.851 137.367
288 9.49718 5.20289 1.4 18.7278 -74.8965 -23.6517
289 10.2472 5.20289 1.4 18.2995 -69.5532 69.8172
290 10.9972 5.20289 1.4 17.8924 -71.8097 -9.94478
291 11.7472 5.20289 1.4 17.5079 -60.5981 65.1836
292 12.4972 5.20289 1.4 17.1477 -64.9161 6.70634
293 13.2472 5.20289 1.4 16.8133 -66.677 85.8619
294 13.9972 5.20289 1.4 16.5061 -88.6859 13.8997
295 14.7472 5.20289 1.4 16.2278 -87.0554 160.615
296 15.4972 5.20289 1.4 15.9799 -74.5919 -65.3649
297 16.2472 5.20289 1.4 15.7639 -74.1235 41.6546
298 16.9972 5.20289 1.4 15.5809 -78.5734 172.762
299 17.7472 5.20289 1.4 15.4323 -61.2978 -119.989
300 18.4972 5.20289 1.4 15.319 -57.4509 57.981
301 19.2472 5.20289 1.4 15.2419 -55.2822 115.058
302 19.9972 5.20289 1.4 15.2013 -56.8535 -13.3792
303 20.7472 5.20289 1.4 15.1977 -58.6342 12.8415
304 21.4972 5.20289 1.4 15.2311 -62.4691 -76.8067
305 22.2472 5.20289 1.4 15.3013 -61.9689 104.337
306 22.9972 5.20289 1.4 15.4076 -77.316 126.921
307 23.7472 5.20289 1.4 15.5495 -57.3935 97.4973
308 24.4972 5.20289 1.4 15.7258 -56.2653 3.64587
309 25.2472 5.20289 1.4 15.9356 -59.6085 -172.317
310 25.9972 5.20289 1.4 16.1774 -64.7595 -65.5064
311 26.7472 5.20289 1.4 16.4499 -61.3811 -100.794
312 27.4972 5.20289 1.4 16.7516 -63.7631 38.9254
313 28.2472 5.20289 1.4 17.0809 -63.1196 18.3449
314 28.9972 5.20289 1.4 17.4363 -85.0169 -170.982
315 29.7472 5.20289 1.4 17.8161 -66.8389 122.763
316 30.4972 5.20289 1.4 18.219 -72.5951 46.0306
317 -28.0028 5.95289 1.4 50.5551 -250 0
318 -27.2528 5.95289 1.4 49.8369 -250 0
319 -26.5028 5.95289 1.4 49.1195 -250 0
320 -25.7528 5.95289 1.4 48.4032 -250 0
321 -25.0028 5.95289 1.4 47.6879 -250 0
322 -24.2528 5.95289 1.4 46.9737 -250 0
323 -23.5028 5.95289 1.4 46.2606 -250 0
324 -22.7528 5.95289 1.4 45.5487 -250 0
325 -22.0028 5.95289 1.4 44.838 -250 0
326 -21.2528 5.95289 1.4 44.1287 -250 0
327 -20.5028 5.95289 1.4 43.4207 -146.505 -47.0305
328 -19.7528 5.95289 1.4 42.7141 -120.417 -27.6492
329 -19.0028 5.95289 1.4 42.0091 -121.117 134.915
330 -18.2528 5.95289 1.4 41.3056 -134.24 117.646
331 -17.5028 5.95289 1.4 40.6038 -159.612 20.4635
332 -16.7528 5.95289 1.4 39.9038 -105.325 146.763
333 -16.0028 5.95289 1.4 39.2056 -101.856 137.34
334 -15.2528 5.95289 1.4 38.5093 -99.1713 19.7186
335 -14.5028 5.95289 1.4 37.8152 -110.387 -176.274
336 -13.7528 5.95289 1.4 37.1231 -109.812 2.27969
337 -13.0028 5.95289 1.4 36.4334 -86.6446 -37.8296
338 -12.2528 5.95289 1.4 35.7461 -96.9654 3.37565
339 -11.5028 5.95289 1.4 35.0614 -99.1014 92.4128
340 -10.7528 5.95289 1.4 34.3794 -92.5584 -90.7176
341 -10.0028 5.95289 1.4 33.7003 -88.1058 -10.6009
342 -9.25282 5.95289 1.4 33.0242 -94.142 -110.639
343 -8.50282 5.95289 1.4 32.3514 -95.8218 -18.2261
344 -7.75282 5.95289 1.4 31.6821 -95.8038 91.862
345 -7.00282 5.95289 1.4 31.0165 -85.1347 -26.7412
346 -6.25282 5.95289 1.4 30.3548 -110.301 -74.6234
347 -5.50282 5.95289 1.4 29.6973 -96.5776 94.1138
348 -4.75282 5.95289 1.4 29.0443 -107.016 -33.8518
349 -4.00282 5.95289 1.4 28.3961 -114.339 -16.2252
350 -3.25282 5.95289 1.4 27.753 -79.4623 78.0287
351 -2.50282 5.95289 1.4 27.1154 -84.9703 70.3135
352 -1.75282 5.95289 1.4 26.4837 -84.2788 65.0382
353 -1.00282 5.95289 1.4 25.8583 -92.4062 145.608
354 -0.25282 5.95289 1.4 25.2397 -96.5269 -162.004
355 0.49718 5.95289 1.4 24.6284 -87.1437 -48.1235
356 1.24718 5.95289 1.4 24.025 -83.3398 -142.426
357 1.99718 5.95289 1.4 23.43 -101.552 76.5
358 2.74718 5.95289 1.4 22.8442 -88.1941 -105.843
359 3.49718 5.95289 1.4 22.2682 -94.0078 103.944
360 4.24718 5.95289 1.4 21.7028 -74.8009 20.1136
361 4.99718 5.95289 1.4 21.149 -65.5047 28.9007
362 5.74718 5.95289 1.4 20.6075 -66.8024 -136.998
363 6.49718 5.95289 1.4 20.0795 -62.6103 -8.18872
364 7.24718 5.95289 1.4 19.566 -72.8555 116.271
365 7.99718 5.95289 1.4 19.0681 -66.9887 64.0941
366 8.74718 5.95289 1.4 18.5872 -68.223 56.827
367 9.49718 5.95289 1.4 18.1246 -67.7219 -3.6896
368 10.2472 5.95289 1.4 17.6817 -70.0625 104.139
369 10.9972 5.95289 1.4 17.26 -58.2389 -69.5334
370 11.7472 5.95289 1.4 16.8612 -63.0664 -39.7774
371 12.4972 5.95289 1.4 16.4868 -71.2982 -3.00212
372 13.2472 5.95289 1.4 16.1386 -69.4505 -69.1831
373 13.9972 5.95289 1.4 15.8184 -73.8056 160.485
374 14.7472 5.95289 1.4 15.5278 -87.8704 -76.6626
375 15.4972 5.95289 1.4 15.2686 -106.328 140.991
376 16.2472 5.95289 1.4 15.0423 -98.7149 37.0361
377 16.9972 5.95289 1.4 14.8505 -57.548 -169.827
378 17.7472 5.95289 1.4 14.6945 -64.0078 -64.5866
379 18.4972 5.95289 1.4 14.5754 -56.9031 90.8963
380 19.2472 5.95289 1.4 14.4943 -55.3001 -52.9953
381 19.9972 5.95289 1.4 14.4517 -64.6055 43.096
382 20.7472 5.95289 1.4 14.4479 -66.1495 41.9858
383 21.4972 5.95289 1.4 14.483 -60.0201 -43.7466
384 22.2472 5.95289 1.4 14.5567 -62.6208 -98.1434
385 22.9972 5.95289 1.4 14.6685 -62.1348 -59.0013
386 23.7472 5.95289 1.4 14.8174 -56.167 -165.211
387 24.4972 5.95289 1.4 15.0024 -70.1382 33.9354
388 25.2472 5.95289 1.4 15.2221 -62.3545 158.477
389 25.9972 5.95289 1.4 15.4751 -63.7081 144.917
390 26.7472 5.95289 1.4 15.7598 -65.8284 56.7969
391 27.4972 5.95289 1.4 16.0744 -82.3934 -133.952
392 28.2472 5.95289 1.4 16.4173 -69.5889 -71.541
393 28.9972 5.95289 1.4 16.7867 -66.7831 36.0555
394 29.7472 5.95289 1.4 17.1809 -84.5755 -50.1533
395 30.4972 5.95289 1.4 17.5983 -71.0439 -176.283
396 -28.0028 6.70289 1.4 50.346 -250 0
397 -27.2528 6.70289 1.4 49.6247 -250 0
398 -26.5028 6.70289 1.4 48.9042 -250 0
399 -25.7528 6.70289 1.4 48.1847 -250 0
400 -25.0028 6.70289 1.4 47.4661 -250 0
401 -24.2528 6.70289 1.4 46.7485 -250 0
402 -23.5028 6.70289 1.4 46.0319 -250 0
403 -22.7528 6.70289 1.4 45.3164 -250 0
404 -22.0028 6.70289 1.4 44.6021 -250 0
405 -21.2528 6.70289 1.4 43.8889 -250 0
406 -20.5028 6.70289 1.4 43.177 -137.835 34.9664
407 -19.7528 6.70289 1.4 42.4664 -121.592 87.88
408 -19.0028 6.70289 1.4 41.7572 -131.287 30.5314
409 -18.2528 6.70289 1.4 41.0494 -134.01 -2.92308
410 -17.5028 6.70289 1.4 40.3431 -142.942 -66.0357
411 -16.7528 6.70289 1.4 39.6385 -111.914 -17.4271
412 -16.0028 6.70289 1.4 38.9355 -120.155 127.822
413 -15.2528 6.70289 1.4 38.2343 -113.503 36.238
414 -14.5028 6.70289 1.4 37.5351 -106.56 26.3972
415 -13.7528 6.70289 1.4 36.8378 -86.5487 -30.1051
416 -13.0028 6.70289 1.4 36.1426 -105.01 50.864
417 -12.2528 6.70289 1.4 35.4497 -76.0963 -177.656
418 -11.5028 6.70289 1.4 34.7591 -84.1966 19.4132
419 -10.7528 6.70289 1.4 34.0711 -92.2754 -67.0882
420 -10.0028 6.70289 1.4 33.3857 -84.671 55.5323
421 -9.25282 6.70289 1.4 32.7031 -86.1735 -127.526
422 -8.50282 6.70289 1.4 32.0236 -97.246 63.0831
423 -7.75282 6.70289 1.4 31.3473 -93.6293 -157.734
424 -7.00282 6.70289 1.4 30.6744 -93.9915 -26.0166
425 -6.25282 6.70289 1.4 30.0051 -85.2945 -117.188
426 -5.50282 6.70289 1.4 29.3398 -108.934 61.9196
427 -4.75282 6.70289 1.4 28.6787 -111.521 -170.338
428 -4.00282 6.70289 1.4 28.022 -106.819 36.7864
429 -3.25282 6.70289 1.4 27.3701 -96.6109 -39.4596
430 -2.50282 6.70289 1.4 26.7234 -81.3207 -24.2255
431 -1.75282 6.70289 1.4 26.0822 -87.2981 6.44543
432 -1.00282 6.70289 1.4 25.4469 -84.5882 -33.118
433 -0.25282 6.70289 1.4 24.8181 -102.494 -57.4873
434 0.49718 6.70289 1.4 24.1961 -86.0638 -162.858
435 1.24718 6.70289 1.4 23.5816 -86.8847 -112.203
436 1.99718 6.70289 1.4 22.9752 -84.9921 -169.786
437 2.74718 6.70289 1.4 22.3775 -85.2788 -73.7389
438 3.49718 6.70289 1.4 21.7892 -107.153 149.138
439 4.24718 6.70289 1.4 21.211 -69.134 -150.399
440 4.99718 6.70289 1.4 20.644 -83.0616 125.274
441 5.74718 6.70289 1.4 20.0889 -63.011 -67.2737
442 6.49718 6.70289 1.4 19.5469 -65.7133 116.226
443 7.24718 6.70289 1.4 19.019 -61.9828 -128.767
444 7.99718 6.70289 1.4 18.5064 -70.791 3.33023
445 8.74718 6.70289 1.4 18.0105 -63.853 -54.6427
446 9.49718 6.70289 1.4 17.5327 -73.7 -59.4165
447 10.2472 6.70289 1.4 17.0745 -70.3495 172.843
448 10.9972 6.70289 1.4 16.6374 -62.7832 -149.772
449 11.7472 6.70289 1.4 16.2233 -70.7392 -146.807
450 12.4972 6.70289 1.4 15.8338 -63.0549 -163.275
451 13.2472 6.70289 1.4 15.471 -66.9725 1.08208
452 13.9972 6.70289 1.4 15.1366 -63.6464 -89.9156
453 14.7472 6.70289 1.4 14.8327 -81.9951 171.803
454 15.4972 6.70289 1.4 14.5611 -83.4727 163.038
455 16.2472 6.70289 1.4 14.3236 -88.6398 70.7431
456 16.9972 6.70289 1.4 14.122 -63.6783 -158.983
457 17.7472 6.70289 1.4 13.9579 -67.8629 -151.038
458 18.4972 6.70289 1.4 13.8325 -52.9996 145.027
459 19.2472 6.70289 1.4 13.747 -67.1134 -161.363
460 19.9972 6.70289 1.4 13.702 -59.7938 161.99
461 20.7472 6.70289 1.4 13.6981 -73.5629 104.569
462 21.4972 6.70289 1.4 13.7351 -58.7009 45.3244
463 22.2472 6.70289 1.4 13.8128 -60.7022 130.284
464 22.9972 6.70289 1.4 13.9306 -57.36 5.19276
465 23.7472 6.70289 1.4 14.0873 -62.7738 -139.046
466 24.4972 6.70289 1.4 14.2817 -60.0943 -174.976
467 25.2472 6.70289 1.4 14.5124 -62.3876 40.9107
468 25.9972 6.70289 1.4 14.7775 -68.4186 -28.6832
469 26.7472 6.70289 1.4 15.0753 -63.068 -43.9212
470 27.4972 6.70289 1.4 15.404 -76.7957 71.5281
471 28.2472 6.70289 1.4 15.7614 -69.5724 -110.861
472 28.9972 6.70289 1.4 16.1459 -75.9962 129.785
473 29.7472 6.70289 1.4 16.5554 -71.8957 -92.0602
474 30.4972 6.70289 1.4 16.9881 -72.7991 -140.399
475 -28.0028 7.45289 1.4 50.1472 -250 0
476 -27.2528 7.45289 1.4 49.423 -250 0
477 -26.5028 7.45289 1.4 48.6995 -250 0
478 -25.7528 7.45289 1.4 47.9769 -250 0
479 -25.0028 7.45289 1.4 47.2552 -250 0
480 -24.2528 7.45289 1.4 46.5343 -250 0
481 -23.5028 7.45289 1.4 45.8144 -250 0
482 -22.7528 7.45289 1.4 45.0955 -250 0
483 -22.0028 7.45289 1.4 44.3775 -250 0
484 -21.2528 7.45289 1.4 43.6607 -250 0
485 -20.5028 7.45289 1.4 42.945 -250 0
486 -19.7528 7.45289 1.4 42.2305 -250 0
487 -19.0028 7.45289 1.4 41.5172 -148.13 -73.7447
488 -18.2528 7.45289 1.4 40.8053 -250 0
489 -17.5028 7.45289 1.4 40.0947 -250 0
490 -16.7528 7.45289 1.4 39.3856 -119.405 -41.9569
491 -16.0028 7.45289 1.4 38.6781 -129.265 -144.546
492 -15.2528 7.45289 1.4 37.9722 -110.385 -156.412
493 -14.5028 7.45289 1.4 37.268 -114.636 59.7723
494 -13.7528 7.45289 1.4 36.5656 -108.914 -168.049
495 -13.0028 7.45289 1.4 35.8651 -89.587 -77.3305
496 -12.2528 7.45289 1.4 35.1667 -87.3481 -17.5375
497 -11.5028 7.45289 1.4 34.4705 -83.8797 57.2753
498 -10.7528 7.45289 1.4 33.7766 -93.6162 -59.0494
499 -10.0028 7.45289 1.4 33.0851 -91.8441 147.753
500 -9.25282 7.45289 1.4 32.3962 -86.7036 -70.2571
501 -8.50282 7.45289 1.4 31.7101 -88.3603 145.442
502 -7.75282 7.45289 1.4 31.0269 -97.2787 162.749
503 -7.00282 7.45289 1.4 30.347 -91.4242 99.025
504 -6.25282 7.45289 1.4 29.6703 -94.8121 -134.37
505 -5.50282 7.45289 1.4 28.9973 -86.5383 153.313
506 -4.75282 7.45289 1.4 28.3282 -103.271 -73.1236
507 -4.00282 7.45289 1.4 27.6632 -111.706 8.10739
508 -3.25282 7.45289 1.4 27.0026 -111.08 42.1014
509 -2.50282 7.45289 1.4 26.3469 -87.5989 -104.801
510 -1.75282 7.45289 1.4 25.6963 -80.2668 -130.88
511 -1.00282 7.45289 1.4 25.0513 -83.2135 177.917
512 -0.25282 7.45289 1.4 24.4122 -84.9433 -125.316
513 0.49718 7.45289 1.4 23.7797 -110.57 -134.793
514 1.24718 7.45289 1.4 23.1541 -85.9635 15.0198
515 1.99718 7.45289 1.4 22.5362 -91.5176 32.522
516 2.74718 7.45289 1.4 21.9265 -85.6104 -83.6224
517 3.49718 7.45289 1.4 21.3257 -98.6369 -155.33
518 4.24718 7.45289 1.4 20.7347 -70.841 169.747
519 4.99718 7.45289 1.4 20.1543 -68.0268 102.06
520 5.74718 7.45289 1.4 19.5853 -65.6705 -34.0594
521 6.49718 7.45289 1.4 19.029 -62.8881 163.448
522 7.24718 7.45289 1.4 18.4863 -64.4285 -15.2136
523 7.99718 7.45289 1.4 17.9585 -64.3587 120.169
524 8.74718 7.45289 1.4 17.4471 -71.4726 -74.837
525 9.49718 7.45289 1.4 16.9534 -63.1147 -152.862
526 10.2472 7.45289 1.4 16.479 -62.5987 108.678
527 10.9972 7.45289 1.4 16.0257 -67.6643 -68.48
528 11.7472 7.45289 1.4 15.5953 -65.9377 153.115
529 12.4972 7.45289 1.4 15.1898 -68.5632 -99.4508
530 13.2472 7.45289 1.4 14.8112 -64.9135 82.6064
531 13.9972 7.45289 1.4 14.4616 -74.2702 -87.04
532 14.7472 7.45289 1.4 14.1432 -68.6013 41.9495
533 15.4972 7.45289 1.4 13.858 -250 0
534 16.2472 7.45289 1.4 13.6083 -80.2989 58.3375
535 16.9972 7.45289 1.4 13.396 -84.631 168.589
536 17.7472 7.45289 1.4 13.2228 -57.5761 39.2369
537 18.4972 7.45289 1.4 13.0904 -51.667 156.063
538 19.2472 7.45289 1.4 13 -70.3239 -22.1802
539 19.9972 7.45289 1.4 12.9525 -55.94 178.334
540 20.7472 7.45289 1.4 12.9483 -61.7114 -170.564
541 21.4972 7.45289 1.4 12.9874 -59.571 137.945
542 22.2472 7.45289 1.4 13.0696 -57.8156 179.633
543 22.9972 7.45289 1.4 13.194 -57.3184 87.6717
544 23.7472 7.45289 1.4 13.3593 -61.7635 34.6068
545 24.4972 7.45289 1.4 13.5642 -60.5157 106.893
546 25.2472 7.45289 1.4 13.8068 -67.8744 -132.722
547 25.9972 7.45289 1.4 14.0853 -55.34 -116.607
548 26.7472 7.45289 1.4 14.3974 -68.4824 -165.392
549 27.4972 7.45289 1.4 14.7412 -72.4323 -158.644
550 28.2472 7.45289 1.4 15.1143 -68.6727 -157.471
551 28.9972 7.45289 1.4 15.5148 -70.9292 -79.6645
552 29.7472 7.45289 1.4 15.9405 -80.671 -107.809
553 30.4972 7.45289 1.4 16.3895 -77.5654 -5.97078
554 -28.0028 8.20289 1.4 49.9588 -250 0
555 -27.2528 8.20289 1.4 49.2318 -250 0
556 -26.5028 8.20289 1.4 48.5056 -250 0
557 -25.7528 8.20289 1.4 47.78 -250 0
558 -25.0028 8.20289 1.4 47.0553 -250 0
559 -24.2528 8.20289 1.4 46.3313 -250 0
560 -23.5028 8.20289 1.4 45.6082 -250 0
561 -22.7528 8.20289 1.4 44.8859 -250 0
562 -22.0028 8.20289 1.4 44.1646 -250 0
563 -21.2528 8.20289 1.4 43.4442 -250 0
564 -20.5028 8.20289 1.4 42.7249 -250 0
565 -19.7528 8.20289 1.4 42.0067 -150.501 -143.025
566 -19.0028 8.20289 1.4 41.2895 -159.064 -115.294
567 -18.2528 8.20289 1.4 40.5736 -182.403 17.754
568 -17.5028 8.20289 1.4 39.8589 -187.375 -98.8756
569 -16.7528 8.20289 1.4 39.1455 -146.442 100.727
570 -16.0028 8.20289 1.4 38.4336 -139.726 87.9562
571 -15.2528 8.20289 1.4 37.7231 -125.66 175.255
572 -14.5028 8.20289 1.4 37.0141 -110.352 -46.7479
573 -13.7528 8.20289 1.4 36.3069 -104.079 -77.0193
574 -13.0028 8.20289 1.4 35.6013 -92.7604 139.517
575 -12.2528 8.20289 1.4 34.8976 -98.0406 -169.39
576 -11.5028 8.20289 1.4 34.1959 -87.6333 142.957
577 -10.7528 8.20289 1.4 33.4963 -88.9677 130.72
578 -10.0028 8.20289 1.4 32.7989 -83.9012 -2.631
579 -9.25282 8.20289 1.4 32.1039 -85.8006 53.1838
580 -8.50282 8.20289 1.4 31.4114 -87.3295 -18.428
581 -7.75282 8.20289 1.4 30.7216 -85.2724 0.644121
582 -7.00282 8.20289 1.4 30.0347 -98.9909 1.35613
583 -6.25282 8.20289 1.4 29.3509 -93.9945 2.79292
584 -5.50282 8.20289 1.4 28.6704 -96.8241 130.082
585 -4.75282 8.20289 1.4 27.9934 -86.8128 34.5097
586 -4.00282 8.20289 1.4 27.3203 -98.0155 21.3017
587 -3.25282 8.20289 1.4 26.6512 -86.0066 161.062
588 -2.50282 8.20289 1.4 25.9866 -99.6057 -94.7806
589 -1.75282 8.20289 1.4 25.3268 -93.6284 41.4132
590 -1.00282 8.20289 1.4 24.6721 -77.3699 112.788
591 -0.25282 8.20289 1.4 24.023 -83.8348 61.343
592 0.49718 8.20289 1.4 23.3799 -87.1417 153.56
593 1.24718 8.20289 1.4 22.7433 -89.0781 -159.565
594 1.99718 8.20289 1.4 22.1139 -83.4057 -38.942
595 2.74718 8.20289 1.4 21.4923 -93.1894 -80.0342
596 3.49718 8.20289 1.4 20.879 -90.5219 3.79367
597 4.24718 8.20289 1.4 20.275 -70.2444 75.6989
598 4.99718 8.20289 1.4 19.681 -69.7361 11.8846
599 5.74718 8.20289 1.4 19.0979 -67.2232 -38.8121
600 6.49718 8.20289 1.4 18.5269 -65.2196 -156.457
601 7.24718 8.20289 1.4 17.9691 -64.2289 62.4157
602 7.99718 8.20289 1.4 17.4257 -70.6382 -117.996
603 8.74718 8.20289 1.4 16.8981 -62.5202 -16.0604
604 9.49718 8.20289 1.4 16.3879 -65.9235 161.39
605 10.2472 8.20289 1.4 15.8966 -61.7741 6.20975
606 10.9972 8.20289 1.4 15.4262 -62.0321 -76.2332
607 11.7472 8.20289 1.4 14.9786 -60.6851 134.136
608 12.4972 8.20289 1.4 14.556 -65.9345 -1.24041
609 13.2472 8.20289 1.4 14.1604 -78.8779 68.2261
610 13.9972 8.20289 1.4 13.7943 -90.1879 86.2973
611 14.7472 8.20289 1.4 13.4601 -66.2679 83.7715
612 15.4972 8.20289 1.4 13.1602 -58.8017 -124.335
613 16.2472 8.20289 1.4 12.897 -77.5716 83.5177
614 16.9972 8.20289 1.4 12.6727 -62.4679 -101.967
615 17.7472 8.20289 1.4 12.4895 -52.7698 -76.0927
616 18.4972 8.20289 1.4 12.3493 -77.0138 -164.165
617 19.2472 8.20289 1.4 12.2534 -69.3569 -102.539
618 19.9972 8.20289 1.4 12.2029 -53.7717 -161.937
619 20.7472 8.20289 1.4 12.1985 -55.2475 -93.5249
620 21.4972 8.20289 1.4 12.2401 -58.1267 -34.3387
621 22.2472 8.20289 1.4 12.3272 -57.3891 -105.58
622 22.9972 8.20289 1.4 12.459 -75.4431 -165.644
623 23.7472 8.20289 1.4 12.634 -57.9791 4.4231
624 24.4972 8.20289 1.4 12.8504 -66.1431 61.2257
625 25.2472 8.20289 1.4 13.1063 -58.0357 123.846
626 25.9972 8.20289 1.4 13.3993 -65.8723 44.0444
627 26.7472 8.20289 1.4 13.727 -66.0752 1.34791
628 27.4972 8.20289 1.4 14.0871 -78.0242 118.927
629 28.2472 8.20289 1.4 14.4772 -64.3524 -86.8067
630 28.9972 8.20289 1.4 14.8948 -72.6982 5.65712
631 29.7472 8.20289 1.4 15.3377 -64.8302 -132.322
632 30.4972 8.20289 1.4 15.8039 -74.5959 61.6805
633 -28.0028 8.95289 1.4 49.7811 -131.513 -80.4988
634 -27.2528 8.95289 1.4 49.0514 -137.781 113.565
635 -26.5028 8.95289 1.4 48.3225 -143.738 130.419
636 -25.7528 8.95289 1.4 47.5941 -142.104 157.249
637 -25.0028 8.95289 1.4 46.8665 -132.703 -173.229
638 -24.2528 8.95289 1.4 46.1396 -250 0
639 -23.5028 8.95289 1.4 45.4134 -250 0
640 -22.7528 8.95289 1.4 44.688 -250 0
641 -22.0028 8.95289 1.4 43.9634 -250 0
642 -21.2528 8.95289 1.4 43.2397 -250 0
643 -20.5028 8.95289 1.4 42.5169 -250 0
644 -19.7528 8.95289 1.4 41.7951 -250 0
645 -19.0028 8.95289 1.4 41.0743 -250 0
646 -18.2528 8.95289 1.4 40.3545 -250 0
647 -17.5028 8.95289 1.4 39.6359 -250 0
648 -16.7528 8.95289 1.4 38.9184 -116.449 129.464
649 -16.0028 8.95289 1.4 38.2022 -117.625 70.5794
650 -15.2528 8.95289 1.4 37.4873 -130.186 -89.2358
651 -14.5028 8.95289 1.4 36.7739 -122.486 96.8277
652 -13.7528 8.95289 1.4 36.0619 -127.314 19.9706
653 -13.0028 8.95289 1.4 35.3514 -105.925 -95.4487
654 -12.2528 8.95289 1.4 34.6427 -108.077 23.1453
655 -11.5028 8.95289 1.4 33.9357 -112.76 -112.672
656 -10.7528 8.95289 1.4 33.2306 -98.165 174.485
657 -10.0028 8.95289 1.4 32.5275 -98.1612 58.3282
658 -9.25282 8.95289 1.4 31.8266 -86.7152 83.2917
659 -8.50282 8.95289 1.4 31.1279 -106.898 115.231
660 -7.75282 8.95289 1.4 30.4317 -100.316 134.809
661 -7.00282 8.95289 1.4 29.7381 -87.0209 -96.5719
662 -6.25282 8.95289 1.4 29.0473 -104.011 -132.65
663 -5.50282 8.95289 1.4 28.3595 -96.3989 -127.889
664 -4.75282 8.95289 1.4 27.6749 -108.065 -35.8221
665 -4.00282 8.95289 1.4 26.9938 -86.1346 -48.3875
666 -3.25282 8.95289 1.4 26.3165 -79.8328 31.6165
667 -2.50282 8.95289 1.4 25.6432 -95.5397 64.3867
668 -1.75282 8.95289 1.4 24.9743 -94.6512 -7.43196
669 -1.00282 8.95289 1.4 24.3101 -92.7677 -116.494
670 -0.25282 8.95289 1.4 23.6511 -76.9047 -6.94678
671 0.49718 8.95289 1.4 22.9976 -84.5685 89.0392
672 1.24718 8.95289 1.4 22.3502 -80.263 -60.5955
673 1.99718 8.95289 1.4 21.7094 -85.385 112.663
674 2.74718 8.95289 1.4 21.0758 -84.3076 -118.546
675 3.49718 8.95289 1.4 20.45 -96.5779 -161.171
676 4.24718 8.95289 1.4 19.8329 -68.8016 -67.8361
677 4.99718 8.95289 1.4 19.2253 -67.5596 -70.431
678 5.74718 8.95289 1.4 18.628 -71.4236 -126.094
679 6.49718 8.95289 1.4 18.0421 -67.3472 -160.186
680 7.24718 8.95289 1.4 17.4688 -69.144 84.4011
681 7.99718 8.95289 1.4 16.9093 -64.4893 -32.9309
682 8.74718 8.95289 1.4 16.3651 -64.9787 141.735
683 9.49718 8.95289 1.4 15.8377 -60.4261 -105.862
684 10.2472 8.95289 1.4 15.3288 -63.1892 -18.4458
685 10.9972 8.95289 1.4 14.8405 -60.7172 -84.4174
686 11.7472 8.95289 1.4 14.3746 -59.375 -138.411
687 12.4972 8.95289 1.4 13.9336 -67.2695 51.2064
688 13.2472 8.95289 1.4 13.5199 -69.0548 -129.982
689 13.9972 8.95289 1.4 13.136 -58.4186 -121.523
690 14.7472 8.95289 1.4 12.7845 -62.9775 44.2915
691 15.4972 8.95289 1.4 12.4684 -71.2862 146.442
692 16.2472 8.95289 1.4 12.1902 -70.0851 102.836
693 16.9972 8.95289 1.4 11.9527 -56.2788 147.744
694 17.7472 8.95289 1.4 11.7584 -55.733 -103.674
695 18.4972 8.95289 1.4 11.6093 -58.2701 160.631
696 19.2472 8.95289 1.4 11.5072 -58.9562 153.271
697 19.9972 8.95289 1.4 11.4535 -55.5679 -139.15
698 20.7472 8.95289 1.4 11.4487 -66.4155 137.263
699 21.4972 8.95289 1.4 11.493 -53.2552 94.5984
700 22.2472 8.95289 1.4 11.5858 -64.7916 -56.7345
701 22.9972 8.95289 1.4 11.7259 -64.3456 -129.596
702 23.7472 8.95289 1.4 11.9117 -68.8769 -19.6356
703 24.4972 8.95289 1.4 12.141 -55.8262 -145.358
704 25.2472 8.95289 1.4 12.4115 -60.8572 -23.225
705 25.9972 8.95289 1.4 12.7205 -68.381 -139.957
706 26.7472 8.95289 1.4 13.0653 -71.8966 78.6344
707 27.4972 8.95289 1.4 13.4431 -67.4218 -49.1279
708 28.2472 8.95289 1.4 13.8513 -67.7924 -87.9549
709 28.9972 8.95289 1.4 14.2872 -58.6635 113.505
710 29.7472 8.95289 1.4 14.7484 -69.8457 -66.4489
711 30.4972 8.95289 1.4 15.2326 -71.6763 62.9513
712 -28.0028 9.70289 1.4 49.614 -124.561 -163.463
713 -27.2528 9.70289 1.4 48.8819 -130.928 -119.249
714 -26.5028 9.70289 1.4 48.1503 -127.4 99.0343
715 -25.7528 9.70289 1.4 47.4194 -131.469 84.9878
716 -25.0028 9.70289 1.4 46.689 -250 0
717 -24.2528 9.70289 1.4 45.9593 -140.652 38.0483
718 -23.5028 9.70289 1.4 45.2302 -138.615 57.5989
719 -22.7528 9.70289 1.4 44.5018 -124.426 2.9625
720 -22.0028 9.70289 1.4 43.7742 -151.758 -65.7011
721 -21.2528 9.70289 1.4 43.0473 -149.341 -10.9521
722 -20.5028 9.70289 1.4 42.3212 -106.43 122.512
723 -19.7528 9.70289 1.4 41.596 -125.836 112.231
724 -19.0028 9.70289 1.4 40.8716 -144.102 73.9886
725 -18.2528 9.70289 1.4 40.1483 -137.662 -26.9196
726 -17.5028 9.70289 1.4 39.4259 -129.798 -161.502
727 -16.7528 9.70289 1.4 38.7045 -127.186 88.5421
728 -16.0028 9.70289 1.4 37.9843 -142.241 -50.8921
729 -15.2528 9.70289 1.4 37.2652 -130.201 -36.3555
730 -14.5028 9.70289 1.4 36.5474 -118.404 -48.665
731 -13.7528 9.70289 1.4 35.8309 -105.199 -89.61
732 -13.0028 9.70289 1.4 35.1158 -98.3375 -123.105
733 -12.2528 9.70289 1.4 34.4022 -102.973 65.0025
734 -11.5028 9.70289 1.4 33.6902 -116.505 166.242
735 -10.7528 9.70289 1.4 32.9798 -109.902 154.226
736 -10.0028 9.70289 1.4 32.2713 -101.379 136.718
737 -9.25282 9.70289 1.4 31.5646 -93.8421 179.559
738 -8.50282 9.70289 1.4 30.86 -104.465 120.415
739 -7.75282 9.70289 1.4 30.1576 -100.665 -0.577548
740 -7.00282 9.70289 1.4 29.4576 -91.9104 99.4856
741 -6.25282 9.70289 1.4 28.76 -80.0835 -170.983
742 -5.50282 9.70289 1.4 28.0652 -102.82 84.1718
743 -4.75282 9.70289 1.4 27.3733 -96.3067 152.612
744 -4.00282 9.70289 1.4 26.6845 -97.299 -56.9445
745 -3.25282 9.70289 1.4 25.9991 -83.7493 126.687
746 -2.50282 9.70289 1.4 25.3174 -91.8854 -148.385
747 -1.75282 9.70289 1.4 24.6396 -81.6908 -151.661
748 -1.00282 9.70289 1.4 23.9662 -105.237 -125.017
749 -0.25282 9.70289 1.4 23.2974 -93.3918 80.2963
750 0.49718 9.70289 1.4 22.6337 -76.8839 -156.798
751 1.24718 9.70289 1.4 21.9756 -97.0626 66.7029
752 1.99718 9.70289 1.4 21.3235 -79.2644 -150.398
753 2.74718 9.70289 1.4 20.6781 -81.3424 3.97923
754 3.49718 9.70289 1.4 20.0399 -84.4226 -152.549
755 4.24718 9.70289 1.4 19.4098 -80.2323 64.4274
756 4.99718 9.70289 1.4 18.7885 -69.652 144.65
757 5.74718 9.70289 1.4 18.1768 -68.7553 121.141
758 6.49718 9.70289 1.4 17.5759 -74.024 121.752
759 7.24718 9.70289 1.4 16.9869 -73.3294 130.693
760 7.99718 9.70289 1.4 16.411 -70.2283 -9.64751
761 8.74718 9.70289 1.4 15.8496 -70.7819 -157.461
762 9.49718 9.70289 1.4 15.3045 -67.2659 36.1384
763 10.2472 9.70289 1.4 14.7773 -69.5453 -24.9112
764 10.9972 9.70289 1.4 14.2701 -66.5522 141.866
765 11.7472 9.70289 1.4 13.785 -61.812 142.564
766 12.4972 9.70289 1.4 13.3245 -62.5774 25.9032
767 13.2472 9.70289 1.4 12.8912 -83.9617 -71.9617
768 13.9972 9.70289 1.4 12.488 -58.1329 -126.487
769 14.7472 9.70289 1.4 12.1178 -64.6172 50.8352
770 15.4972 9.70289 1.4 11.7837 -59.9862 70.1264
771 16.2472 9.70289 1.4 11.489 -75.1355 -77.811
772 16.9972 9.70289 1.4 11.2367 -57.3635 -159.993
773 17.7472 9.70289 1.4 11.0297 -57.8352 -2.16251
774 18.4972 9.70289 1.4 10.8706 -55.0393 114.923
775 19.2472 9.70289 1.4 10.7616 -57.4978 -173.749
776 19.9972 9.70289 1.4 10.7041 -51.6539 -86.5697
777 20.7472 9.70289 1.4 10.699 -49.3131 -62.6462
778 21.4972 9.70289 1.4 10.7464 -62.6829 143.615
779 22.2472 9.70289 1.4 10.8455 -59.4828 119.203
780 22.9972 9.70289 1.4 10.9951 -59.4686 -144.39
781 23.7472 9.70289 1.4 11.193 -57.4477 90.4979
782 24.4972 9.70289 1.4 11.4367 -56.4288 78.4813
783 25.2472 9.70289 1.4 11.7235 -72.5506 65.5547
784 25.9972 9.70289 1.4 12.0502 -85.1171 -178.073
785 26.7472 9.70289 1.4 12.4136 -74.2792 -34.2601
786 27.4972 9.70289 1.4 12.8107 -71.0549 55.6804
787 28.2472 9.70289 1.4 13.2384 -68.6182 48.1931
788 28.9972 9.70289 1.4 13.6938 -64.7072 126.271
789 29.7472 9.70289 1.4 14.1743 -69.8486 -62.5091
790 30.4972 9.70289 1.4 14.6775 -69.5399 154.267
791 -28.0028 10.4529 1.4 49.4577 -250 0
792 -27.2528 10.4529 1.4 48.7233 -112.496 5.03241
793 -26.5028 10.4529 1.4 47.9893 -250 0
794 -25.7528 10.4529 1.4 47.2559 -132.559 110.198
795 -25.0028 10.4529 1.4 46.5229 -250 0
796 -24.2528 10.4529 1.4 45.7905 -129.482 35.5534
797 -23.5028 10.4529 1.4 45.0587 -125.597 177.923
798 -22.7528 10.4529 1.4 44.3275 -250 0
799 -22.0028 10.4529 1.4 43.597 -105.583 -2.07706
800 -21.2528 10.4529 1.4 42.8671 -157.297 67.3545
801 -20.5028 10.4529 1.4 42.1379 -132.349 140.969
802 -19.7528 10.4529 1.4 41.4095 -250 0
803 -19.0028 10.4529 1.4 40.6818 -109.678 112.447
804 -18.2528 10.4529 1.4 39.955 -250 0
805 -17.5028 10.4529 1.4 39.2291 -250 0
806 -16.7528 10.4529 1.4 38.504 -105.909 174.497
807 -16.0028 10.4529 1.4 37.78 -149.252 157.3
808 -15.2528 10.4529 1.4 37.0569 -136.641 117.152
809 -14.5028 10.4529 1.4 36.335 -250 0
810 -13.7528 10.4529 1.4 35.6142 -113.624 36.2932
811 -13.0028 10.4529 1.4 34.8947 -113.13 -129.684
812 -12.2528 10.4529 1.4 34.1765 -100.468 -158.73
813 -11.5028 10.4529 1.4 33.4596 -102.336 -50.47
814 -10.7528 10.4529 1.4 32.7443 -108 -9.97555
815 -10.0028 10.4529 1.4 32.0305 -117.436 12.9752
816 -9.25282 10.4529 1.4 31.3185 -106.045 171.002
817 -8.50282 10.4529 1.4 30.6082 -250 0
818 -7.75282 10.4529 1.4 29.8999 -83.9109 -123.352
819 -7.00282 10.4529 1.4 29.1936 -87.7875 -167.636
820 -6.25282 10.4529 1.4 28.4896 -80.89 -28.9243
821 -5.50282 10.4529 1.4 27.7881 -81.4133 30.9195
822 -4.75282 10.4529 1.4 27.0891 -101.698 144.989
823 -4.00282 10.4529 1.4 26.3929 -93.9725 70.062
824 -3.25282 10.4529 1.4 25.6997 -96.2165 155.227
825 -2.50282 10.4529 1.4 25.0098 -92.3632 7.60415
826 -1.75282 10.4529 1.4 24.3235 -80.4772 127.566
827 -1.00282 10.4529 1.4 23.641 -114.901 39.6002
828 -0.25282 10.4529 1.4 22.9628 -97.4945 155.262
829 0.49718 10.4529 1.4 22.2891 -77.1949 -50.8942
830 1.24718 10.4529 1.4 21.6205 -77.2809 93.1727
831 1.99718 10.4529 1.4 20.9574 -78.9093 -113.856
832 2.74718 10.4529 1.4 20.3003 -78.4554 95.5499
833 3.49718 10.4529 1.4 19.6499 -82.9888 -100.123
834 4.24718 10.4529 1.4 19.0068 -77.1529 -174.326
835 4.99718 10.4529 1.4 18.3719 -74.8391 -101.371
836 5.74718 10.4529 1.4 17.7459 -72.0835 -36.6555
837 6.49718 10.4529 1.4 17.1299 -72.1067 -29.7928
838 7.24718 10.4529 1.4 16.525 -66.7734 -31.075
839 7.99718 10.4529 1.4 15.9324 -80.083 24.5721
840 8.74718 10.4529 1.4 15.3536 -66.201 -125.616
841 9.49718 10.4529 1.4 14.7901 -67.8203 100.762
842 10.2472 10.4529 1.4 14.2439 -67.4393 -96.9233
843 10.9972 10.4529 1.4 13.717 -66.6498 -4.21655
844 11.7472 10.4529 1.4 13.2116 -80.7499 14.3839
845 12.4972 10.4529 1.4 12.7304 -62.284 85.1335
846 13.2472 10.4529 1.4 12.2761 -74.6688 -93.85
847 13.9972 10.4529 1.4 11.852 -54.9631 -31.2088
848 14.7472 10.4529 1.4 11.4613 -64.3217 63.0953
849 15.4972 10.4529 1.4 11.1075 -64.2215 -136.308
850 16.2472 10.4529 1.4 10.7943 -100.949 35.0245
851 16.9972 10.4529 1.4 10.5254 -52.1438 163.51
852 17.7472 10.4529 1.4 10.3041 -50.6727 -111.547
853 18.4972 10.4529 1.4 10.1336 -57.8654 88.3188
854 19.2472 10.4529 1.4 10.0166 -52.8764 -120
855 19.9972 10.4529 1.4 9.9548 -50.6825 -5.01373
856 20.7472 10.4529 1.4 9.94933 -50.4774 -13.4969
857 21.4972 10.4529 1.4 10.0003 -59.1759 -62.3112
858 22.2472 10.4529 1.4 10.1067 -61.1358 63.934
859 22.9972 10.4529 1.4 10.2671 -58.9858 -2.65932
860 23.7472 10.4529 1.4 10.4787 -58.9713 -46.6808
861 24.4972 10.4529 1.4 10.7387 -59.268 -131.819
862 25.2472 10.4529 1.4 11.0436 -73.0614 119.948
863 25.9972 10.4529 1.4 11.3898 -65.4149 -113.983
864 26.7472 10.4529 1.4 11.7736 -63.2176 179.908
865 27.4972 10.4529 1.4 12.1915 -68.4081 -125.928
866 28.2472 10.4529 1.4 12.6402 -76.5306 -166.949
867 28.9972 10.4529 1.4 13.1164 -75.0703 152.603
868 29.7472 10.4529 1.4 13.6173 -66.5784 78.2427
869 30.4972 10.4529 1.4 14.1403 -63.4158 -89.146
870 -28.0028 11.2029 1.4 49.3124 -131.775 78.27
871 -27.2528 11.2029 1.4 48.5758 -132.077 44.0424
872 -26.5028 11.2029 1.4 47.8395 -250 0
873 -25.7528 11.2029 1.4 47.1037 -250 0
874 -25.0028 11.2029 1.4 46.3684 -250 0
875 -24.2528 11.2029 1.4 45.6335 -113.699 82.2934
876 -23.5028 11.2029 1.4 44.8992 -113.619 135.325
877 -22.7528 11.2029 1.4 44.1653 -82.7553 -91.1999
878 -22.0028 11.2029 1.4 43.432 -83.662 -68.2912
879 -21.2528 11.2029 1.4 42.6993 -113.376 -66.183
880 -20.5028 11.2029 1.4 41.9672 -250 0
881 -19.7528 11.2029 1.4 41.2358 -99.4618 -63.3741
882 -19.0028 11.2029 1.4 40.505 -88.3934 150.561
883 -18.2528 11.2029 1.4 39.775 -110.951 -79.8016
884 -17.5028 11.2029 1.4 39.0457 -250 0
885 -16.7528 11.2029 1.4 38.3172 -250 0
886 -16.0028 11.2029 1.4 37.5895 -76.8468 171.295
887 -15.2528 11.2029 1.4 36.8628 -90.2952 153.822
888 -14.5028 11.2029 1.4 36.1369 -250 0
889 -13.7528 11.2029 1.4 35.4121 -79.3543 27.7798
890 -13.0028 11.2029 1.4 34.6884 -74.4986 51.552
891 -12.2528 11.2029 1.4 33.9658 -250 0
892 -11.5028 11.2029 1.4 33.2444 -250 0
893 -10.7528 11.2029 1.4 32.5244 -101.966 144.115
894 -10.0028 11.2029 1.4 31.8057 -102.133 150.904
895 -9.25282 11.2029 1.4 31.0884 -250 0
896 -8.50282 11.2029 1.4 30.3728 -250 0
897 -7.75282 11.2029 1.4 29.6589 -250 0
898 -7.00282 11.2029 1.4 28.9468 -77.1741 36.6178
899 -6.25282 11.2029 1.4 28.2366 -90.8445 -4.49773
900 -5.50282 11.2029 1.4 27.5286 -83.8475 -106.959
901 -4.75282 11.2029 1.4 26.8228 -73.7669 110.896
902 -4.00282 11.2029 1.4 26.1195 -71.3978 162.775
903 -3.25282 11.2029 1.4 25.4189 -90.7748 126.47
904 -2.50282 11.2029 1.4 24.7212 -90.8844 -110.251
905 -1.75282 11.2029 1.4 24.0266 -75.2558 132.014
906 -1.00282 11.2029 1.4 23.3354 -73.6456 -121.025
907 -0.25282 11.2029 1.4 22.6481 -76.3247 -119.704
908 0.49718 11.2029 1.4 21.9648 -74.4009 -48.1628
909 1.24718 11.2029 1.4 21.2859 -75.5447 -130.138
910 1.99718 11.2029 1.4 20.6121 -72.5632 -26.8705
911 2.74718 11.2029 1.4 19.9436 -68.6089 160.698
912 3.49718 11.2029 1.4 19.2812 -69.0484 -53.7861
913 4.24718 11.2029 1.4 18.6254 -73.8329 64.1967
914 4.99718 11.2029 1.4 17.977 -70.8601 -164.055
915 5.74718 11.2029 1.4 17.3367 -70.5542 -164.656
916 6.49718 11.2029 1.4 16.7057 -81.3349 90.4026
917 7.24718 11.2029 1.4 16.0848 -66.1674 98.8128
918 7.99718 11.2029 1.4 15.4753 -70.7902 80.4146
919 8.74718 11.2029 1.4 14.8787 -72.428 117.074
920 9.49718 11.2029 1.4 14.2966 -73.8997 54.6017
921 10.2472 11.2029 1.4 13.7308 -59.6993 -93.6421
922 10.9972 11.2029 1.4 13.1833 -59.2599 75.9545
923 11.7472 11.2029 1.4 12.6567 -51.9467 -156.749
924 12.4972 11.2029 1.4 12.1535 -60.6403 -100.643
925 13.2472 11.2029 1.4 11.6768 -61.449 -141.517
926 13.9972 11.2029 1.4 11.2301 -67.7325 98.0383
927 14.7472 11.2029 1.4 10.8169 -58.8247 146.602
928 15.4972 11.2029 1.4 10.4414 -61.9808 -171.3
929 16.2472 11.2029 1.4 10.1076 -54.8438 -86.3662
930 16.9972 11.2029 1.4 9.81983 -53.6479 -152.794
931 17.7472 11.2029 1.4 9.58228 -55.3769 -174.243
932 18.4972 11.2029 1.4 9.39874 -49.9629 39.0092
933 19.2472 11.2029 1.4 9.2724 -53.2476 -105.511
934 19.9972 11.2029 1.4 9.20562 -55.7489 96.9185
935 20.7472 11.2029 1.4 9.1997 -55.1044 86.1284
936 21.4972 11.2029 1.4 9.25476 -55.8937 -98.4244
937 22.2472 11.2029 1.4 9.36972 -63.9893 120.747
938 22.9972 11.2029 1.4 9.54242 -58.5522 -142.795
939 23.7472 11.2029 1.4 9.76979 -68.5278 169.693
940 24.4972 11.2029 1.4 10.0481 -69.3561 51.5402
941 25.2472 11.2029 1.4 10.3733 -64.2655 100.862
942 25.9972 11.2029 1.4 10.7411 -64.3798 26.1817
943 26.7472 11.2029 1.4 11.1473 -65.6509 25.7716
944 27.4972 11.2029 1.4 11.5879 -70.7988 105.055
945 28.2472 11.2029 1.4 12.059 -76.4795 63.4431
946 28.9972 11.2029 1.4 12.5573 -62.7021 -67.2656
947 29.7472 11.2029 1.4 13.0797 -70.2013 70.4493
948 30.4972 11.2029 1.4 13.6233 -68.0715 -156.311
949 -28.0028 11.9529 1.4 49.1781 -106.01 -80.7627
950 -27.2528 11.9529 1.4 48.4394 -114.184 -126.038
951 -26.5028 11.9529 1.4 47.7011 -107.159 -133.982
952 -25.7528 11.9529 1.4 46.9631 -107.014 -175.231
953 -25.0028 11.9529 1.4 46.2255 -97.1566 -151.883
954 -24.2528 11.9529 1.4 45.4883 -90.538 37.1062
955 -23.5028 11.9529 1.4 44.7516 -92.5028 -64.7918
956 -22.7528 11.9529 1.4 44.0153 -82.1606 72.3175
957 -22.0028 11.9529 1.4 43.2795 -85.2129 121.007
958 -21.2528 11.9529 1.4 42.5441 -106.545 -164.494
959 -20.5028 11.9529 1.4 41.8093 -101.808 -163.086
960 -19.7528 11.9529 1.4 41.0751 -86.8289 -104.245
961 -19.0028 11.9529 1.4 40.3414 -81.5913 49.5311
962 -18.2528 11.9529 1.4 39.6083 -81.9662 105.747
963 -17.5028 11.9529 1.4 38.8759 -99.3972 -113.25
964 -16.7528 11.9529 1.4 38.1441 -92.2256 -179.833
965 -16.0028 11.9529 1.4 37.4131 -71.1406 -38.0231
966 -15.2528 11.9529 1.4 36.6829 -83.0835 -51.0983
967 -14.5028 11.9529 1.4 35.9534 -84.1881 12.2305
968 -13.7528 11.9529 1.4 35.2249 -87.4541 136.029
969 -13.0028 11.9529 1.4 34.4972 -71.7977 176.125
970 -12.2528 11.9529 1.4 33.7705 -80.9274 122.086
971 -11.5028 11.9529 1.4 33.0449 -87.6957 159.646
972 -10.7528 11.9529 1.4 32.3203 -97.4433 -82.1244
973 -10.0028 11.9529 1.4 31.597 -81.933 62.252
974 -9.25282 11.9529 1.4 30.8749 -90.7305 56.532
975 -8.50282 11.9529 1.4 30.1542 -91.9351 -50.9022
976 -7.75282 11.9529 1.4 29.435 -85.2892 118.261
977 -7.00282 11.9529 1.4 28.7173 -82.4853 -61.6892
978 -6.25282 11.9529 1.4 28.0014 -78.6266 148.194
979 -5.50282 11.9529 1.4 27.2872 -87.8792 41.552
980 -4.75282 11.9529 1.4 26.575 -77.1815 -110.725
981 -4.00282 11.9529 1.4 25.865 -68.6899 -100.03
982 -3.25282 11.9529 1.4 25.1573 -73.8641 4.74459
983 -2.50282 11.9529 1.4 24.4521 -85.4235 67.43
984 -1.75282 11.9529 1.4 23.7497 -73.6809 -72.8
985 -1.00282 11.9529 1.4 23.0502 -62.9679 110.045
986 -0.25282 11.9529 1.4 22.3541 -68.1294 84.5483
987 0.49718 11.9529 1.4 21.6615 -68.4043 90.8289
988 1.24718 11.9529 1.4 20.9729 -73.0726 -3.08111
989 1.99718 11.9529 1.4 20.2886 -71.6294 -5.05539
990 2.74718 11.9529 1.4 19.6092 -69.3232 79.3395
991 3.49718 11.9529 1.4 18.935 -65.2196 -48.9465
992 4.24718 11.9529 1.4 18.2668 -67.0927 15.9006
993 4.99718 11.9529 1.4 17.6052 -68.6818 27.1782
994 5.74718 11.9529 1.4 16.9509 -62.1971 80.6207
995 6.49718 11.9529 1.4 16.3049 -68.5061 135.939
996 7.24718 11.9529 1.4 15.6681 -70.5394 84.8968
997 7.99718 11.9529 1.4 15.0418 -64.9663 -56.1963
998 8.74718 11.9529 1.4 14.4273 -65.8144 -142.316
999 9.49718 11.9529 1.4 13.8262 -59.8345 4.22282
1000 10.2472 11.9529 1.4 13.2403 -61.1213 -99.1884
1001 10.9972 11.9529 1.4 12.6717 -63.6958 41.0987
1002 11.7472 11.9529 1.4 12.1228 -55.7526 -44.6309
1003 12.4972 11.9529 1.4 11.5965 -55.2492 62.3892
1004 13.2472 11.9529 1.4 11.0959 -58.0663 152.91
1005 13.9972 11.9529 1.4 10.6247 -57.7893 28.3741
1006 14.7472 11.9529 1.4 10.1871 -54.8304 -82.7501
1007 15.4972 11.9529 1.4 9.78736 -61.4306 36.2874
1008 16.2472 11.9529 1.4 9.43045 -59.9536 -3.23748
1009 16.9972 11.9529 1.4 9.12138 -51.217 30.8712
1010 17.7472 11.9529 1.4 8.86513 -52.5846 69.2027
1011 18.4972 11.9529 1.4 8.66641 -62.2995 91.0733
1012 19.2472 11.9529 1.4 8.52923 -45.001 -51.1873
1013 19.9972 11.9529 1.4 8.45658 -56.6193 145.373
1014 20.7472 11.9529 1.4 8.45014 -50.027 147.411
1015 21.4972 11.9529 1.4 8.51005 -64.2203 -17.4919
1016 22.2472 11.9529 1.4 8.63493 -51.9325 78.3824
1017 22.9972 11.9529 1.4 8.82203 -63.051 96.8392
1018 23.7472 11.9529 1.4 9.06748 -67.3894 -121.347
1019 24.4972 11.9529 1.4 9.36671 -70.5425 -53.3875
1020 25.2472 11.9529 1.4 9.71475 -71.3599 -88.9504
1021 25.9972 11.9529 1.4 10.1066 -62.4877 62.9185
1022 26.7472 11.9529 1.4 10.5372 -63.811 -6.82269
1023 27.4972 11.9529 1.4 11.0023 -71.7184 -99.7721
1024 28.2472 11.9529 1.4 11.4974 -57.9583 43.0291
1025 28.9972 11.9529 1.4 12.019 -68.1466 -51.7497
1026 29.7472 11.9529 1.4 12.5638 -59.3258 89.9405
1027 30.4972 11.9529 1.4 13.1287 -63.926 -9.91788
1028 -28.0028 12.7029 1.4 49.0549 -114.673 24.4485
1029 -27.2528 12.7029 1.4 48.3143 -123.769 71.2565
1030 -26.5028 12.7029 1.4 47.574 -120.409 27.4638
1031 -25.7528 12.7029 1.4 46.834 -115.536 -168.737
1032 -25.0028 12.7029 1.4 46.0944 -110.075 -76.0724
1033 -24.2528 12.7029 1.4 45.3551 -109.743 -177.236
1034 -23.5028 12.7029 1.4 44.6162 -98.251 -25.7992
1035 -22.7528 12.7029 1.4 43.8776 -93.9511 -67.668
1036 -22.0028 12.7029 1.4 43.1394 -94.941 -39.3646
1037 -21.2528 12.7029 1.4 42.4016 -92.5604 111.036
1038 -20.5028 12.7029 1.4 41.6643 -99.1655 -155.378
1039 -19.7528 12.7029 1.4 40.9275 -81.8144 -127.268
1040 -19.0028 12.7029 1.4 40.1911 -79.6774 -28.1991
1041 -18.2528 12.7029 1.4 39.4552 -82.3643 18.4243
1042 -17.5028 12.7029 1.4 38.7199 -76.2632 74.5826
1043 -16.7528 12.7029 1.4 37.9851 -75.0369 141.611
1044 -16.0028 12.7029 1.4 37.251 -85.8833 175.306
1045 -15.2528 12.7029 1.4 36.5175 -87.9325 8.93134
1046 -14.5028 12.7029 1.4 35.7847 -85.5325 -132.678
1047 -13.7528 12.7029 1.4 35.0526 -85.7879 141.467
1048 -13.0028 12.7029 1.4 34.3213 -84.5177 -54.3436
1049 -12.2528 12.7029 1.4 33.5908 -77.8168 -38.7153
1050 -11.5028 12.7029 1.4 32.8612 -78.3764 36.7246
1051 -10.7528 12.7029 1.4 32.1325 -83.6793 77.7581
1052 -10.0028 12.7029 1.4 31.4049 -82.5272 -104.726
1053 -9.25282 12.7029 1.4 30.6783 -96.4977 -46.7039
1054 -8.50282 12.7029 1.4 29.9528 -84.5447 4.21332
1055 -7.75282 12.7029 1.4 29.2287 -78.3744 161.852
1056 -7.00282 12.7029 1.4 28.5058 -84.631 -94.5702
1057 -6.25282 12.7029 1.4 27.7844 -73.5424 14.9515
1058 -5.50282 12.7029 1.4 27.0645 -78.6635 15.2161
1059 -4.75282 12.7029 1.4 26.3463 -73.1084 58.2972
1060 -4.00282 12.7029 1.4 25.63 -76.5369 -6.60573
1061 -3.25282 12.7029 1.4 24.9156 -67.8973 54.3389
1062 -2.50282 12.7029 1.4 24.2033 -71.0963 -135.575
1063 -1.75282 12.7029 1.4 23.4935 -74.3905 -139.588
1064 -1.00282 12.7029 1.4 22.7862 -73.2238 -140.772
1065 -0.25282 12.7029 1.4 22.0817 -66.144 -28.8716
1066 0.49718 12.7029 1.4 21.3803 -81.2174 -67.5458
1067 1.24718 12.7029 1.4 20.6823 -71.0447 0.930071
1068 1.99718 12.7029 1.4 19.9881 -78.4724 -115.373
1069 2.74718 12.7029 1.4 19.298 -66.45 -115.121
1070 3.49718 12.7029 1.4 18.6126 -61.7107 149.107
1071 4.24718 12.7029 1.4 17.9324 -66.8079 -106.508
1072 4.99718 12.7029 1.4 17.258 -63.8172 -157.909
1073 5.74718 12.7029 1.4 16.59 -68.1038 -159.555
1074 6.49718 12.7029 1.4 15.9294 -79.3466 -135.556
1075 7.24718 12.7029 1.4 15.277 -65.8124 101.874
1076 7.99718 12.7029 1.4 14.6339 -66.242 -14.1635
1077 8.74718 12.7029 1.4 14.0015 -69.7117 138.091
1078 9.49718 12.7029 1.4 13.3813 -72.1033 -91.1044
1079 10.2472 12.7029 1.4 12.775 -61.6052 153.358
1080 10.9972 12.7029 1.4 12.1847 -64.0981 148.779
1081 11.7472 12.7029 1.4 11.6128 -59.3756 35.1559
1082 12.4972 12.7029 1.4 11.0623 -58.3988 -134.994
1083 13.2472 12.7029 1.4 10.5363 -55.5378 -61.6773
1084 13.9972 12.7029 1.4 10.039 -59.2213 139.89
1085 14.7472 12.7029 1.4 9.57453 -53.8436 -61.0814
1086 15.4972 12.7029 1.4 9.1481 -55.7719 5.40158
1087 16.2472 12.7029 1.4 8.7652 -53.3266 111.615
1088 16.9972 12.7029 1.4 8.43178 -55.7923 -128.302
1089 17.7472 12.7029 1.4 8.15389 -58.7105 51.5281
1090 18.4972 12.7029 1.4 7.93738 -47.0901 58.0413
1091 19.2472 12.7029 1.4 7.78737 -47.3584 -9.49405
1092 19.9972 12.7029 1.4 7.70774 -50.2416 28.3132
1093 20.7472 12.7029 1.4 7.70067 -64.3931 -129.421
1094 21.4972 12.7029 1.4 7.76636 -55.2099 -27.1379
1095 22.2472 12.7029 1.4 7.903 -57.4146 -15.5284
1096 22.9972 12.7029 1.4 8.10701 -68.2073 -164.806
1097 23.7472 12.7029 1.4 8.37345 -70.3374 -56.2736
1098 24.4972 12.7029 1.4 8.69659 -71.4533 60.1576
1099 25.2472 12.7029 1.4 9.07038 -70.5829 170.173
1100 25.9972 12.7029 1.4 9.48883 -61.1908 -115.923
1101 26.7472 12.7029 1.4 9.9463 -64.3022 -151.798
1102 27.4972 12.7029 1.4 10.4377 -59.674 -75.2692
1103 28.2472 12.7029 1.4 10.9584 -71.7276 -158.718
1104 28.9972 12.7029 1.4 11.5044 -59.0348 -21.7682
1105 29.7472 12.7029 1.4 12.0724 -64.1031 -143.17
1106 30.4972 12.7029 1.4 12.6594 -67.4789 -104.772
1107 -28.0028 13.4529 1.4 48.9428 -125.365 68.7688
1108 -27.2528 13.4529 1.4 48.2005 -125.087 22.1192
1109 -26.5028 13.4529 1.4 47.4585 -250 0
1110 -25.7528 13.4529 1.4 46.7167 -250 0
1111 -25.0028 13.4529 1.4 45.9752 -250 0
1112 -24.2528 13.4529 1.4 45.2339 -112.226 96.4152
1113 -23.5028 13.4529 1.4 44.4929 -94.6744 -77.6634
1114 -22.7528 13.4529 1.4 43.7523 -84.8396 -165.457
1115 -22.0028 13.4529 1.4 43.012 -84.5842 -64.2902
1116 -21.2528 13.4529 1.4 42.272 -88.2254 -100.318
1117 -20.5028 13.4529 1.4 41.5324 -82.3776 65.4324
1118 -19.7528 13.4529 1.4 40.7931 -76.2963 163.721
1119 -19.0028 13.4529 1.4 40.0543 -91.5287 157.437
1120 -18.2528 13.4529 1.4 39.3158 -76.2126 -97.8518
1121 -17.5028 13.4529 1.4 38.5779 -122.376 -103.065
1122 -16.7528 13.4529 1.4 37.8403 -76.0636 -10.6875
1123 -16.0028 13.4529 1.4 37.1033 -102.008 -87.9164
1124 -15.2528 13.4529 1.4 36.3669 -92.0166 -5.52886
1125 -14.5028 13.4529 1.4 35.631 -80.8572 -109.618
1126 -13.7528 13.4529 1.4 34.8956 -81.8904 3.80199
1127 -13.0028 13.4529 1.4 34.161 -84.1304 62.1753
1128 -12.2528 13.4529 1.4 33.427 -74.5535 115.391
1129 -11.5028 13.4529 1.4 32.6937 -79.1904 176.618
1130 -10.7528 13.4529 1.4 31.9612 -73.1874 -144.987
1131 -10.0028 13.4529 1.4 31.2296 -85.3795 155.664
1132 -9.25282 13.4529 1.4 30.4988 -76.3042 -89.4762
1133 -8.50282 13.4529 1.4 29.769 -77.8347 -0.792828
1134 -7.75282 13.4529 1.4 29.0402 -93.1634 24.2531
1135 -7.00282 13.4529 1.4 28.3126 -76.5899 97.1705
1136 -6.25282 13.4529 1.4 27.5861 -78.8619 126.294
1137 -5.50282 13.4529 1.4 26.8609 -70.3197 -167.427
1138 -4.75282 13.4529 1.4 26.1371 -78.2057 -147.487
1139 -4.00282 13.4529 1.4 25.4149 -88.9888 6.6819
1140 -3.25282 13.4529 1.4 24.6943 -78.126 80.7325
1141 -2.50282 13.4529 1.4 23.9754 -70.7921 -43.3161
1142 -1.75282 13.4529 1.4 23.2586 -68.0623 8.6488
1143 -1.00282 13.4529 1.4 22.5439 -80.3037 -146.648
1144 -0.25282 13.4529 1.4 21.8316 -73.7513 93.7906
1145 0.49718 13.4529 1.4 21.1219 -65.5904 -168.991
1146 1.24718 13.4529 1.4 20.4151 -80.8654 120.818
1147 1.99718 13.4529 1.4 19.7115 -66.8807 -115.337
1148 2.74718 13.4529 1.4 19.0114 -80.8935 -136.592
1149 3.49718 13.4529 1.4 18.3153 -62.815 42.5804
1150 4.24718 13.4529 1.4 17.6236 -64.8306 12.0353
1151 4.99718 13.4529 1.4 16.9369 -64.4267 17.064
1152 5.74718 13.4529 1.4 16.2557 -63.5642 -40.1312
1153 6.49718 13.4529 1.4 15.5809 -70.7537 168.431
1154 7.24718 13.4529 1.4 14.9133 -68.0481 23.3179
1155 7.99718 13.4529 1.4 14.2539 -73.977 -96.3347
1156 8.74718 13.4529 1.4 13.6038 -79.4562 89.3741
1157 9.49718 13.4529 1.4 12.9645 -63.332 -158.561
1158 10.2472 13.4529 1.4 12.3378 -59.8598 18.0198
1159 10.9972 13.4529 1.4 11.7255 -62.7939 23.4476
1160 11.7472 13.4529 1.4 11.13 -66.5946 -14.986
1161 12.4972 13.4529 1.4 10.5543 -56.4093 -75.787
1162 13.2472 13.4529 1.4 10.0017 -60.4892 118.249
1163 13.9972 13.4529 1.4 9.47634 -70.7914 126.074
1164 14.7472 13.4529 1.4 8.98288 -62.2797 -171.251
1165 15.4972 13.4529 1.4 8.52691 -55.2103 132.595
1166 16.2472 13.4529 1.4 8.11475 -55.7198 -161.436
1167 16.9972 13.4529 1.4 7.75341 -71.7045 -86.5977
1168 17.7472 13.4529 1.4 7.45026 -51.399 -42.2081
1169 18.4972 13.4529 1.4 7.21266 -52.9903 -80.6279
1170 19.2472 13.4529 1.4 7.04724 -50.7937 153.887
1171 19.9972 13.4529 1.4 6.95914 -54.4896 -22.5586
1172 20.7472 13.4529 1.4 6.95131 -49.2215 -121.986
1173 21.4972 13.4529 1.4 7.02402 -57.6708 -144.28
1174 22.2472 13.4529 1.4 7.17481 -61.971 -86.1747
1175 22.9972 13.4529 1.4 7.39892 -60.1972 -138.116
1176 23.7472 13.4529 1.4 7.68993 -72.7326 -161.753
1177 24.4972 13.4529 1.4 8.04059 -74.3874 15.738
1178 25.2472 13.4529 1.4 8.44347 -76.1039 -107.11
1179 25.9972 13.4529 1.4 8.89147 -70.6193 -56.5385
1180 26.7472 13.4529 1.4 9.37813 -59.7968 163.513
1181 27.4972 13.4529 1.4 9.89775 -61.1808 92.4817
1182 28.2472 13.4529 1.4 10.4454 -63.1757 -84.2801
1183 28.9972 13.4529 1.4 11.0169 -61.4242 109.425
1184 29.7472 13.4529 1.4 11.6088 -76.2732 26.4712
1185 30.4972 13.4529 1.4 12.218 -67.2284 -96.1459
1186 -28.0028 14.2029 1.4 48.842 -110.898 31.2026
1187 -27.2528 14.2029 1.4 48.0982 -115.432 103.24
1188 -26.5028 14.2029 1.4 47.3545 -114.072 -31.6725
1189 -25.7528 14.2029 1.4 46.6111 -120.675 -118.362
1190 -25.0028 14.2029 1.4 45.8679 -117.158 -113.676
1191 -24.2528 14.2029 1.4 45.1248 -108.405 -56.4621
1192 -23.5028 14.2029 1.4 44.3821 -81.0099 40.5018
1193 -22.7528 14.2029 1.4 43.6395 -85.7499 -24.3239
1194 -22.0028 14.2029 1.4 42.8973 -103 135.353
1195 -21.2528 14.2029 1.4 42.1553 -101.992 21.3471
1196 -20.5028 14.2029 1.4 41.4135 -82.3766 -35.2748
1197 -19.7528 14.2029 1.4 40.6721 -89.7636 55.5036
1198 -19.0028 14.2029 1.4 39.9311 -96.4035 129.343
1199 -18.2528 14.2029 1.4 39.1903 -82.5319 116.114
1200 -17.5028 14.2029 1.4 38.4499 -77.4005 115.246
1201 -16.7528 14.2029 1.4 37.7099 -88.7314 121.097
1202 -16.0028 14.2029 1.4 36.9703 -98.8955 12.0183
1203 -15.2528 14.2029 1.4 36.2311 -106.175 -164.528
1204 -14.5028 14.2029 1.4 35.4924 -83.0901 157.079
1205 -13.7528 14.2029 1.4 34.7542 -101.172 -136.462
1206 -13.0028 14.2029 1.4 34.0164 -99.5792 74.8107
1207 -12.2528 14.2029 1.4 33.2793 -79.7494 -113.085
1208 -11.5028 14.2029 1.4 32.5427 -76.8422 -87.0593
1209 -10.7528 14.2029 1.4 31.8067 -74.4386 -8.09543
1210 -10.0028 14.2029 1.4 31.0714 -83.8939 58.4201
1211 -9.25282 14.2029 1.4 30.3368 -83.7827 167.23
1212 -8.50282 14.2029 1.4 29.603 -69.9963 170.336
1213 -7.75282 14.2029 1.4 28.8701 -81.9601 -175.709
1214 -7.00282 14.2029 1.4 28.138 -88.0422 -56.0195
1215 -6.25282 14.2029 1.4 27.4069 -76.7905 -152.239
1216 -5.50282 14.2029 1.4 26.6768 -79.2948 13.6621
1217 -4.75282 14.2029 1.4 25.9479 -77.1578 -94.7094
1218 -4.00282 14.2029 1.4 25.2202 -84.2131 32.3524
1219 -3.25282 14.2029 1.4 24.4939 -68.697 165.136
1220 -2.50282 14.2029 1.4 23.769 -80.74 -30.6517
1221 -1.75282 14.2029 1.4 23.0458 -78.1583 154.958
1222 -1.00282 14.2029 1.4 22.3243 -81.9625 89.7632
1223 -0.25282 14.2029 1.4 21.6048 -68.6094 -89.6535
1224 0.49718 14.2029 1.4 20.8874 -69.9986 40.8705
1225 1.24718 14.2029 1.4 20.1723 -70.6564 125.353
1226 1.99718 14.2029 1.4 19.4599 -77.2903 155.315
1227 2.74718 14.2029 1.4 18.7505 -69.8171 -161.848
1228 3.49718 14.2029 1.4 18.0443 -72.9742 35.2469
1229 4.24718 14.2029 1.4 17.3418 -71.6666 -146.034
1230 4.99718 14.2029 1.4 16.6434 -64.3766 103.528
1231 5.74718 14.2029 1.4 15.9497 -64.1982 7.23473
1232 6.49718 14.2029 1.4 15.2614 -61.4722 -176.983
1233 7.24718 14.2029 1.4 14.5792 -66.2449 -13.6487
1234 7.99718 14.2029 1.4 13.9039 -71.6232 118.121
1235 8.74718 14.2029 1.4 13.2366 -63.316 -87.5149
1236 9.49718 14.2029 1.4 12.5787 -69.4627 -32.1104
1237 10.2472 14.2029 1.4 11.9317 -69.3674 106.374
1238 10.9972 14.2029 1.4 11.2974 -75.5876 116.274
1239 11.7472 14.2029 1.4 10.6782 -76.8711 171.965
1240 12.4972 14.2029 1.4 10.0767 -58.3292 -89.6692
1241 13.2472 14.2029 1.4 9.49633 -59.7627 -168.738
1242 13.9972 14.2029 1.4 8.94127 -61.0035 35.5798
1243 14.7472 14.2029 1.4 8.4165 -58.9768 151.438
1244 15.4972 14.2029 1.4 7.92802 -63.4436 118.178
1245 16.2472 14.2029 1.4 7.48296 -61.1831 -106.797
1246 16.9972 14.2029 1.4 7.08948 -55.1821 49.4275
1247 17.7472 14.2029 1.4 6.75661 -49.7242 76.1981
1248 18.4972 14.2029 1.4 6.49368 -46.7737 -126.836
1249 19.2472 14.2029 1.4 6.30943 -55.4867 -24.3444
1250 19.9972 14.2029 1.4 6.21088 -50.7369 66.1976
1251 20.7472 14.2029 1.4 6.20211 -58.6152 84.1344
1252 21.4972 14.2029 1.4 6.28349 -71.2627 -141.425
1253 22.2472 14.2029 1.4 6.45161 -70.733 114.883
1254 22.9972 14.2029 1.4 6.69995 -65.4339 -134.551
1255 23.7472 14.2029 1.4 7.02 -68.0309 -39.6224
1256 24.4972 14.2029 1.4 7.40247 -71.8238 -2.98125
1257 25.2472 14.2029 1.4 7.83821 -69.5217 -174.423
1258 25.9972 14.2029 1.4 8.31888 -56.1777 77.6831
1259 26.7472 14.2029 1.4 8.83712 -66.2659 59.1073
1260 27.4972 14.2029 1.4 9.38674 -57.0217 134.153
1261 28.2472 14.2029 1.4 9.96253 -57.0986 -105.286
1262 28.9972 14.2029 1.4 10.5602 -61.7259 64.1742
1263 29.7472 14.2029 1.4 11.1763 -62.794 7.43969
1264 30.4972 14.2029 1.4 11.8078 -75.8106 133.94
1265 -28.0028 14.9529 1.4 48.7526 -112.092 75.958
1266 -27.2528 14.9529 1.4 48.0074 -118.648 -36.5595
1267 -26.5028 14.9529 1.4 47.2623 -111.641 -79.4174
1268 -25.7528 14.9529 1.4 46.5174 -116.876 153.306
1269 -25.0028 14.9529 1.4 45.7726 -103.441 165.6
1270 -24.2528 14.9529 1.4 45.028 -89.3849 -92.9507
1271 -23.5028 14.9529 1.4 44.2836 -102.701 105.001
1272 -22.7528 14.9529 1.4 43.5394 -84.6202 -69.0524
1273 -22.0028 14.9529 1.4 42.7954 -79.2857 85.2762
1274 -21.2528 14.9529 1.4 42.0516 -109.004 50.2427
1275 -20.5028 14.9529 1.4 41.308 -113.05 111.204
1276 -19.7528 14.9529 1.4 40.5647 -118.514 74.7039
1277 -19.0028 14.9529 1.4 39.8216 -101.966 121.66
1278 -18.2528 14.9529 1.4 39.0788 -121.31 -146.368
1279 -17.5028 14.9529 1.4 38.3362 -118.635 -106.245
1280 -16.7528 14.9529 1.4 37.594 -120.022 83.4038
1281 -16.0028 14.9529 1.4 36.852 -97.4462 -68.7403
1282 -15.2528 14.9529 1.4 36.1104 -114.744 -161.627
1283 -14.5028 14.9529 1.4 35.3692 -128.578 9.87187
1284 -13.7528 14.9529 1.4 34.6283 -250 0
1285 -13.0028 14.9529 1.4 33.8879 -100.362 66.4215
1286 -12.2528 14.9529 1.4 33.1478 -116.716 122.06
1287 -11.5028 14.9529 1.4 32.4083 -110.42 88.8105
1288 -10.7528 14.9529 1.4 31.6692 -122.999 141.207
1289 -10.0028 14.9529 1.4 30.9306 -95.5936 132.861
1290 -9.25282 14.9529 1.4 30.1926 -110.478 -14.8589
1291 -8.50282 14.9529 1.4 29.4552 -103.384 -33.2226
1292 -7.75282 14.9529 1.4 28.7185 -86.1316 -112.411
1293 -7.00282 14.9529 1.4 27.9824 -76.7932 98.317
1294 -6.25282 14.9529 1.4 27.2472 -80.204 58.5454
1295 -5.50282 14.9529 1.4 26.5127 -75.5599 120.349
1296 -4.75282 14.9529 1.4 25.7792 -75.4733 -89.6571
1297 -4.00282 14.9529 1.4 25.0466 -101.521 32.8343
1298 -3.25282 14.9529 1.4 24.3151 -91.6807 153.113
1299 -2.50282 14.9529 1.4 23.5847 -94.3889 177.407
1300 -1.75282 14.9529 1.4 22.8556 -81.1978 -140.992
1301 -1.00282 14.9529 1.4 22.1279 -93.932 -120.824
1302 -0.25282 14.9529 1.4 21.4018 -86.7663 -105.01
1303 0.49718 14.9529 1.4 20.6773 -107.352 11.7263
1304 1.24718 14.9529 1.4 19.9548 -85.52 76.392
1305 1.99718 14.9529 1.4 19.2343 -75.1041 92.3365
1306 2.74718 14.9529 1.4 18.5162 -93.7366 91.6315
1307 3.49718 14.9529 1.4 17.8007 -63.6966 70.1126
1308 4.24718 14.9529 1.4 17.0882 -59.9734 111.441
1309 4.99718 14.9529 1.4 16.3791 -58.0976 46.0316
1310 5.74718 14.9529 1.4 15.6737 -61.3222 -22.3758
1311 6.49718 14.9529 1.4 14.9727 -59.6338 -112.653
1312 7.24718 14.9529 1.4 14.2766 -60.0262 126.749
1313 7.99718 14.9529 1.4 13.5863 -63.7211 151.862
1314 8.74718 14.9529 1.4 12.9027 -65.8428 79.4949
1315 9.49718 14.9529 1.4 12.2268 -60.9714 -137.713
1316 10.2472 14.9529 1.4 11.5601 -52.0306 -2.82592
1317 10.9972 14.9529 1.4 10.9042 -55.7853 96.6036
1318 11.7472 14.9529 1.4 10.2613 -56.399 -89.1859
1319 12.4972 14.9529 1.4 9.63378 -53.5392 25.272
1320 13.2472 14.9529 1.4 9.025 -50.9623 16.6948
1321 13.9972 14.9529 1.4 8.439 -57.3993 -53.4029
1322 14.7472 14.9529 1.4 7.88085 -50.518 -117.957
1323 15.4972 14.9529 1.4 7.3569 -48.8684 -59.3258
1324 16.2472 14.9529 1.4 6.87496 -56.1442 -22.9466
1325 16.9972 14.9529 1.4 6.44446 -60.8081 -14.1482
1326 17.7472 14.9529 1.4 6.07636 -45.7717 98.2535
1327 18.4972 14.9529 1.4 5.78258 -44.4085 -81.6522
1328 19.2472 14.9529 1.4 5.57489 -50.2728 43.8914
1329 19.9972 14.9529 1.4 5.4631 -62.3524 80.445
1330 20.7472 14.9529 1.4 5.45312 -52.0935 47.4012
1331 21.4972 14.9529 1.4 5.5455 -55.2016 -17.8745
1332 22.2472 14.9529 1.4 5.7353 -56.7084 65.9308
1333 22.9972 14.9529 1.4 6.0133 -71.1694 4.40599
1334 23.7472 14.9529 1.4 6.36796 -65.5879 -69.1902
1335 24.4972 14.9529 1.4 6.78726 -77.5065 171.544
1336 25.2472 14.9529 1.4 7.26003 -71.1585 -0.720263
1337 25.9972 14.9529 1.4 7.77651 -52.6192 -143.889
1338 26.7472 14.9529 1.4 8.32858 -50.5908 -40.5145
1339 27.4972 14.9529 1.4 8.90962 -59.2502 -74.893
1340 28.2472 14.9529 1.4 9.51432 -46.8047 -25.1027
1341 28.9972 14.9529 1.4 10.1385 -50.9184 -14.0344
1342 29.7472 14.9529 1.4 10.7787 -59.5247 -76.563
1343 30.4972 14.9529 1.4 11.4322 -57.7922 67.5483
1344 -28.0028 15.7029 1.4 48.6745 -111.341 -98.7183
1345 -27.2528 15.7029 1.4 47.9281 -115.413 136.27
1346 -26.5028 15.7029 1.4 47.1818 -120.547 58.3575
1347 -25.7528 15.7029 1.4 46.4355 -112.989 144.535
1348 -25.0028 15.7029 1.4 45.6895 -123.678 11.3553
1349 -24.2528 15.7029 1.4 44.9435 -132.125 162.353
1350 -23.5028 15.7029 1.4 44.1977 -89.0732 155.097
1351 -22.7528 15.7029 1.4 43.452 -112.276 106.106
1352 -22.0028 15.7029 1.4 42.7064 -114.933 -39.1962
1353 -21.2528 15.7029 1.4 41.9611 -94.6648 83.3323
1354 -20.5028 15.7029 1.4 41.2159 -111.834 -153.232
1355 -19.7528 15.7029 1.4 40.4708 -110.17 53.2793
1356 -19.0028 15.7029 1.4 39.726 -110.631 -52.2463
1357 -18.2528 15.7029 1.4 38.9814 -119.184 -110.915
1358 -17.5028 15.7029 1.4 38.2369 -117.077 -173.345
1359 -16.7528 15.7029 1.4 37.4927 -106.321 -0.71699
1360 -16.0028 15.7029 1.4 36.7487 -117.749 -33.3825
1361 -15.2528 15.7029 1.4 36.005 -119.75 164.959
1362 -14.5028 15.7029 1.4 35.2615 -120.979 -51.5303
1363 -13.7528 15.7029 1.4 34.5184 -116.573 -82.6753
1364 -13.0028 15.7029 1.4 33.7755 -112.676 138.252
1365 -12.2528 15.7029 1.4 33.0329 -111.004 -80.2229
1366 -11.5028 15.7029 1.4 32.2907 -120.989 53.9623
1367 -10.7528 15.7029 1.4 31.5489 -105.646 135.086
1368 -10.0028 15.7029 1.4 30.8074 -94.104 81.1622
1369 -9.25282 15.7029 1.4 30.0664 -90.9566 140.188
1370 -8.50282 15.7029 1.4 29.3258 -83.637 166.734
1371 -7.75282 15.7029 1.4 28.5858 -79.8026 -148.638
1372 -7.00282 15.7029 1.4 27.8462 -73.578 -171.323
1373 -6.25282 15.7029 1.4 27.1072 -85.9397 47.4416
1374 -5.50282 15.7029 1.4 26.3689 -82.9836 -41.4164
1375 -4.75282 15.7029 1.4 25.6312 -79.3487 -166.229
1376 -4.00282 15.7029 1.4 24.8943 -85.6772 -109.383
1377 -3.25282 15.7029 1.4 24.1582 -89.0584 -69.9846
1378 -2.50282 15.7029 1.4 23.4229 -88.5437 30.7294
1379 -1.75282 15.7029 1.4 22.6886 -84.7741 132.464
1380 -1.00282 15.7029 1.4 21.9554 -87.9528 4.07853
1381 -0.25282 15.7029 1.4 21.2234 -106.552 -143.319
1382 0.49718 15.7029 1.4 20.4926 -93.9427 -108.375
1383 1.24718 15.7029 1.4 19.7633 -83.7888 -66.9831
1384 1.99718 15.7029 1.4 19.0356 -98.7879 -122.062
1385 2.74718 15.7029 1.4 18.3097 -109.237 107.914
1386 3.49718 15.7029 1.4 17.5858 -68.1226 33.6905
1387 4.24718 15.7029 1.4 16.8643 -62.4548 33.7562
1388 4.99718 15.7029 1.4 16.1453 -66.6439 -117.328
1389 5.74718 15.7029 1.4 15.4292 -67.1564 -113.452
1390 6.49718 15.7029 1.4 14.7165 -65.8026 -26.1454
1391 7.24718 15.7029 1.4 14.0078 -53.7954 -136.12
1392 7.99718 15.7029 1.4 13.3035 -57.6157 -163.859
1393 8.74718 15.7029 1.4 12.6045 -55.1757 101.278
1394 9.49718 15.7029 1.4 11.9118 -60.7166 -147.308
1395 10.2472 15.7029 1.4 11.2264 -52.0547 -124.478
1396 10.9972 15.7029 1.4 10.5498 -54.5146 -164.558
1397 11.7472 15.7029 1.4 9.88377 -56.3315 -73.9888
1398 12.4972 15.7029 1.4 9.23066 -52.1974 70.8653
1399 13.2472 15.7029 1.4 8.59338 -57.0201 153.624
1400 13.9972 15.7029 1.4 7.97573 -52.477 130.491
1401 14.7472 15.7029 1.4 7.38263 -51.8776 -173.55
1402 15.4972 15.7029 1.4 6.82051 -65.1034 -8.67343
1403 16.2472 15.7029 1.4 6.29765 -52.458 -176.888
1404 16.9972 15.7029 1.4 5.82465 -48.4921 -172.708
1405 17.7472 15.7029 1.4 5.41457 -42.4692 -170.459
1406 18.4972 15.7029 1.4 5.08268 -46.9289 90.7678
1407 19.2472 15.7029 1.4 4.84508 -46.4422 85.4383
1408 19.9972 15.7029 1.4 4.71602 -41.7734 75.0138
1409 20.7472 15.7029 1.4 4.70446 -48.9219 92.2445
1410 21.4972 15.7029 1.4 4.81124 -68.8211 35.4678
1411 22.2472 15.7029 1.4 5.02883 -69.0004 67.278
1412 22.9972 15.7029 1.4 5.3437 -73.3678 158.028
1413 23.7472 15.7029 1.4 5.73988 -52.8134 137.518
1414 24.4972 15.7029 1.4 6.2018 -62.4125 43.2207
1415 25.2472 15.7029 1.4 6.71591 -54.6571 47.6155
1416 25.9972 15.7029 1.4 7.27114 -48.581 158.235
1417 26.7472 15.7029 1.4 7.85879 -54.0854 -160.491
1418 27.4972 15.7029 1.4 8.47211 -48.0184 -173.931
1419 28.2472 15.7029 1.4 9.10592 -51.2903 67.8685
1420 28.9972 15.7029 1.4 9.75622 -58.1054 -95.0638
1421 29.7472 15.7029 1.4 10.4199 -66.22 -168.67
1422 30.4972 15.7029 1.4 11.0946 -51.2815 -88.8375
1423 -28.0028 16.4529 1.4 48.6079 -118.218 -3.70553
1424 -27.2528 16.4529 1.4 47.8605 -116.118 -103.165
1425 -26.5028 16.4529 1.4 47.113 -138.942 161.298
1426 -25.7528 16.4529 1.4 46.3657 -120.595 -141.14
1427 -25.0028 16.4529 1.4 45.6185 -128.465 171.675
1428 -24.2528 16.4529 1.4 44.8713 -128.018 -114.084
1429 -23.5028 16.4529 1.4 44.1243 -132.273 115.655
1430 -22.7528 16.4529 1.4 43.3774 -132.368 99.3566
1431 -22.0028 16.4529 1.4 42.6305 -111.535 -140.198
1432 -21.2528 16.4529 1.4 41.8838 -93.3396 45.5241
1433 -20.5028 16.4529 1.4 41.1372 -130.155 -98.5419
1434 -19.7528 16.4529 1.4 40.3907 -130.133 -87.3031
1435 -19.0028 16.4529 1.4 39.6444 -113.507 -56.8902
1436 -18.2528 16.4529 1.4 38.8981 -146.519 3.71564
1437 -17.5028 16.4529 1.4 38.1521 -138.73 -161.814
1438 -16.7528 16.4529 1.4 37.4062 -126.53 -97.456
1439 -16.0028 16.4529 1.4 36.6605 -120.745 -76.7819
1440 -15.2528 16.4529 1.4 35.9149 -110.2 71.3016
1441 -14.5028 16.4529 1.4 35.1695 -124.514 -104.753
1442 -13.7528 16.4529 1.4 34.4244 -107.745 -179.89
1443 -13.0028 16.4529 1.4 33.6794 -120.159 101.716
1444 -12.2528 16.4529 1.4 32.9347 -109.38 -101.26
1445 -11.5028 16.4529 1.4 32.1902 -110.867 42.443
1446 -10.7528 16.4529 1.4 31.446 -112.108 4.23759
1447 -10.0028 16.4529 1.4 30.7021 -89.2488 -66.109
1448 -9.25282 16.4529 1.4 29.9585 -77.0935 17.737
1449 -8.50282 16.4529 1.4 29.2152 -77.5727 -4.5797
1450 -7.75282 16.4529 1.4 28.4722 -82.4226 -36.8612
1451 -7.00282 16.4529 1.4 27.7296 -84.5698 -43.0141
1452 -6.25282 16.4529 1.4 26.9875 -78.3622 -86.5444
1453 -5.50282 16.4529 1.4 26.2458 -93.3835 81.7091
1454 -4.75282 16.4529 1.4 25.5045 -81.5608 46.8134
1455 -4.00282 16.4529 1.4 24.7638 -93.7212 33.3314
1456 -3.25282 16.4529 1.4 24.0237 -89.9757 -113.387
1457 -2.50282 16.4529 1.4 23.2842 -86.4132 -42.9334
1458 -1.75282 16.4529 1.4 22.5454 -87.7737 142.676
1459 -1.00282 16.4529 1.4 21.8074 -84.8673 -152.526
1460 -0.25282 16.4529 1.4 21.0702 -93.1089 -147.735
1461 0.49718 16.4529 1.4 20.3339 -78.2133 -37.3806
1462 1.24718 16.4529 1.4 19.5987 -87.9651 -161.939
1463 1.99718 16.4529 1.4 18.8647 -89.0824 156.252
1464 2.74718 16.4529 1.4 18.1319 -90.2759 55.4444
1465 3.49718 16.4529 1.4 17.4006 -71.9135 40.627
1466 4.24718 16.4529 1.4 16.671 -62.2959 -114.316
1467 4.99718 16.4529 1.4 15.9433 -61.3732 125.717
1468 5.74718 16.4529 1.4 15.2178 -58.9567 -115.315
1469 6.49718 16.4529 1.4 14.4947 -71.7022 0.324678
1470 7.24718 16.4529 1.4 13.7745 -69.4318 -175.666
1471 7.99718 16.4529 1.4 13.0577 -72.3281 -173.266
1472 8.74718 16.4529 1.4 12.3448 -58.3551 43.9677
1473 9.49718 16.4529 1.4 11.6366 -50.9856 42.5195
1474 10.2472 16.4529 1.4 10.934 -53.8829 -7.89928
1475 10.9972 16.4529 1.4 10.2381 -52.2619 -51.7262
1476 11.7472 16.4529 1.4 9.55036 -53.4364 -171.519
1477 12.4972 16.4529 1.4 8.87274 -52.0573 70.7132
1478 13.2472 16.4529 1.4 8.20771 -54.2647 -144.099
1479 13.9972 16.4529 1.4 7.55861 -72.5091 -115.687
1480 14.7472 16.4529 1.4 6.92991 -49.6836 27.3565
1481 15.4972 16.4529 1.4 6.3277 -52.7093 52.0189
1482 16.2472 16.4529 1.4 5.76028 -49.9555 -41.0592
1483 16.9972 16.4529 1.4 5.23898 -54.2091 103.945
1484 17.7472 16.4529 1.4 4.77891 -52.2968 -91.7956
1485 18.4972 16.4529 1.4 4.39933 -40.0027 34.1366
1486 19.2472 16.4529 1.4 4.12252 -44.6568 106.363
1487 19.9972 16.4529 1.4 3.97004 -42.7802 81.696
1488 20.7472 16.4529 1.4 3.9563 -45.1743 -177.31
1489 21.4972 16.4529 1.4 4.0827 -52.7782 -169.762
1490 22.2472 16.4529 1.4 4.33699 -56.5794 -118.505
1491 22.9972 16.4529 1.4 4.69847 -66.3022 -126.648
1492 23.7472 16.4529 1.4 5.14458 -72.2705 -106.82
1493 24.4972 16.4529 1.4 5.65533 -51.4409 -38.7488
1494 25.2472 16.4529 1.4 6.21481 -46.8287 40.5867
1495 25.9972 16.4529 1.4 6.81101 -53.026 27.7702
1496 26.7472 16.4529 1.4 7.43512 -52.7197 -25.8232
1497 27.4972 16.4529 1.4 8.08066 -51.1135 -137.089
1498 28.2472 16.4529 1.4 8.74289 -62.396 -142.822
1499 28.9972 16.4529 1.4 9.41829 -53.8081 -158.287
1500 29.7472 16.4529 1.4 10.1042 -56.6618 -49.5575
1501 30.4972 16.4529 1.4 10.7987 -61.8624 26.2232
1502 -28.0028 17.2029 1.4 48.5528 -138.697 -3.5027
1503 -27.2528 17.2029 1.4 47.8045 -120.99 -19.5517
1504 -26.5028 17.2029 1.4 47.0562 -128.09 62.2104
1505 -25.7528 17.2029 1.4 46.3079 -130.524 112.129
1506 -25.0028 17.2029 1.4 45.5598 -149.74 -25.7237
1507 -24.2528 17.2029 1.4 44.8116 -250 0
1508 -23.5028 17.2029 1.4 44.0636 -250 0
1509 -22.7528 17.2029 1.4 43.3156 -250 0
1510 -22.0028 17.2029 1.4 42.5677 -250 0
1511 -21.2528 17.2029 1.4 41.8198 -250 0
1512 -20.5028 17.2029 1.4 41.072 -144.58 65.6432
1513 -19.7528 17.2029 1.4 40.3244 -130.317 2.46117
1514 -19.0028 17.2029 1.4 39.5768 -129.614 51.0033
1515 -18.2528 17.2029 1.4 38.8293 -130.276 109.513
1516 -17.5028 17.2029 1.4 38.0819 -115.95 73.4201
1517 -16.7528 17.2029 1.4 37.3346 -127.966 84.7527
1518 -16.0028 17.2029 1.4 36.5874 -115.998 -42.7192
1519 -15.2528 17.2029 1.4 35.8403 -123.682 -81.5645
1520 -14.5028 17.2029 1.4 35.0933 -110.646 159.564
1521 -13.7528 17.2029 1.4 34.3465 -102.944 -163.765
1522 -13.0028 17.2029 1.4 33.5998 -104.819 123.885
1523 -12.2528 17.2029 1.4 32.8533 -100.555 -169.744
1524 -11.5028 17.2029 1.4 32.1069 -97.2315 178.834
1525 -10.7528 17.2029 1.4 31.3608 -107.737 52.4211
1526 -10.0028 17.2029 1.4 30.6148 -87.9628 122.642
1527 -9.25282 17.2029 1.4 29.869 -78.1302 129.717
1528 -8.50282 17.2029 1.4 29.1234 -80.8576 112.553
1529 -7.75282 17.2029 1.4 28.378 -79.8761 72.2778
1530 -7.00282 17.2029 1.4 27.6329 -81.5398 -27.9324
1531 -6.25282 17.2029 1.4 26.8881 -89.1821 153.556
1532 -5.50282 17.2029 1.4 26.1435 -82.4208 148.636
1533 -4.75282 17.2029 1.4 25.3993 -98.7347 -9.60096
1534 -4.00282 17.2029 1.4 24.6555 -87.2004 15.0656
1535 -3.25282 17.2029 1.4 23.912 -94.7773 -12.7488
1536 -2.50282 17.2029 1.4 23.1689 -89.8446 128.203
1537 -1.75282 17.2029 1.4 22.4263 -87.7228 -31.3359
1538 -1.00282 17.2029 1.4 21.6842 -95.6758 -25.946
1539 -0.25282 17.2029 1.4 20.9427 -80.9008 -88.1231
1540 0.49718 17.2029 1.4 20.2018 -91.4959 -14.8862
1541 1.24718 17.2029 1.4 19.4616 -87.9855 45.9443
1542 1.99718 17.2029 1.4 18.7222 -98.017 37.7129
1543 2.74718 17.2029 1.4 17.9837 -83.9633 -172.765
1544 3.49718 17.2029 1.4 17.2461 -62.0773 158.487
1545 4.24718 17.2029 1.4 16.5097 -80.6909 108.179
1546 4.99718 17.2029 1.4 15.7745 -62.9465 62.4502
1547 5.74718 17.2029 1.4 15.0408 -70.2179 -172.774
1548 6.49718 17.2029 1.4 14.3088 -63.9091 -49.3772
1549 7.24718 17.2029 1.4 13.5788 -60.0028 61.3553
1550 7.99718 17.2029 1.4 12.851 -61.8342 99.6812
1551 8.74718 17.2029 1.4 12.126 -72.0798 -170.03
1552 9.49718 17.2029 1.4 11.4042 -63.4378 -158.326
1553 10.2472 17.2029 1.4 10.6863 -58.6823 6.29688
1554 10.9972 17.2029 1.4 9.97315 -50.0295 -43.6485
1555 11.7472 17.2029 1.4 9.26578 -53.1735 -111.018
1556 12.4972 17.2029 1.4 8.56568 -63.1024 118.411
1557 13.2472 17.2029 1.4 7.87476 -54.0184 65.7335
1558 13.9972 17.2029 1.4 7.19569 -48.6976 -3.33695
1559 14.7472 17.2029 1.4 6.53216 -48.7717 170.76
1560 15.4972 17.2029 1.4 5.88941 -49.6291 -118.915
1561 16.2472 17.2029 1.4 5.27506 -46.7031 -75.3544
1562 16.9972 17.2029 1.4 4.70025 -51.8285 -131.952
1563 17.7472 17.2029 1.4 4.18132 -42.9744 -68.5304
1564 18.4972 17.2029 1.4 3.74159 -46.1869 107.713
1565 19.2472 17.2029 1.4 3.41183 -63.8415 19.8542
1566 19.9972 17.2029 1.4 3.22593 -44.8415 -155.702
1567 20.7472 17.2029 1.4 3.20901 -42.5956 -148.935
1568 21.4972 17.2029 1.4 3.3636 -52.3026 8.5669
1569 22.2472 17.2029 1.4 3.66809 -61.1282 92.2099
1570 22.9972 17.2029 1.4 4.08913 -47.2692 -76.4253
1571 23.7472 17.2029 1.4 4.59479 -54.3761 173.478
1572 24.4972 17.2029 1.4 5.16025 -47.389 -56.9998
1573 25.2472 17.2029 1.4 5.76795 -50.8578 -134.635
1574 25.9972 17.2029 1.4 6.40588 -50.3905 137.903
1575 26.7472 17.2029 1.4 7.06586 -55.6265 -27.3723
1576 27.4972 17.2029 1.4 7.74225 -51.5565 100.307
1577 28.2472 17.2029 1.4 8.43111 -58.3357 -101.516
1578 28.9972 17.2029 1.4 9.1296 -67.1761 117.068
1579 29.7472 17.2029 1.4 9.83569 -60.5969 -34.7238
1580 30.4972 17.2029 1.4 10.5478 -59.0754 110.4
1581 -28.0028 17.9529 1.4 48.5093 -120.524 -157.658
1582 -27.2528 17.9529 1.4 47.7602 -146.085 -72.8742
1583 -26.5028 17.9529 1.4 47.0112 -149.081 -36.173
1584 -25.7528 17.9529 1.4 46.2623 -130.053 158.705
1585 -25.0028 17.9529 1.4 45.5133 -130.718 -140.846
1586 -24.2528 17.9529 1.4 44.7644 -250 0
1587 -23.5028 17.9529 1.4 44.0156 -250 0
1588 -22.7528 17.9529 1.4 43.2667 -250 0
1589 -22.0028 17.9529 1.4 42.518 -122.163 123.631
1590 -21.2528 17.9529 1.4 41.7692 -141.116 -91.5004
1591 -20.5028 17.9529 1.4 41.0205 -250 0
1592 -19.7528 17.9529 1.4 40.2719 -153.762 -0.948987
1593 -19.0028 17.9529 1.4 39.5233 -154.168 -44.7476
1594 -18.2528 17.9529 1.4 38.7748 -154.63 -92.8749
1595 -17.5028 17.9529 1.4 38.0263 -155.16 -145.616
1596 -16.7528 17.9529 1.4 37.2779 -130.653 -150.734
1597 -16.0028 17.9529 1.4 36.5295 -120.368 -0.186591
1598 -15.2528 17.9529 1.4 35.7812 -121.048 -98.568
1599 -14.5028 17.9529 1.4 35.033 -111.737 97.0762
1600 -13.7528 17.9529 1.4 34.2849 -109.626 30.3536
1601 -13.0028 17.9529 1.4 33.5368 -90.5232 -73.9883
1602 -12.2528 17.9529 1.4 32.7889 -105.176 -161.059
1603 -11.5028 17.9529 1.4 32.041 -94.7035 -168.248
1604 -10.7528 17.9529 1.4 31.2933 -99.9566 -14.824
1605 -10.0028 17.9529 1.4 30.5456 -78.1991 -64.7811
1606 -9.25282 17.9529 1.4 29.7981 -79.7783 -138.694
1607 -8.50282 17.9529 1.4 29.0507 -79.4198 -167.299
1608 -7.75282 17.9529 1.4 28.3034 -93.2716 -35.7254
1609 -7.00282 17.9529 1.4 27.5563 -93.4998 -11.2992
1610 -6.25282 17.9529 1.4 26.8093 -95.5156 -74.0462
1611 -5.50282 17.9529 1.4 26.0625 -89.1187 138.154
1612 -4.75282 17.9529 1.4 25.3159 -92.8437 -165.299
1613 -4.00282 17.9529 1.4 24.5695 -80.9435 -129.912
1614 -3.25282 17.9529 1.4 23.8234 -84.5361 -115.755
1615 -2.50282 17.9529 1.4 23.0775 -83.1668 67.8634
1616 -1.75282 17.9529 1.4 22.3318 -91.3951 115.599
1617 -1.00282 17.9529 1.4 21.5865 -89.5022 14.6753
1618 -0.25282 17.9529 1.4 20.8415 -90.3727 97.8335
1619 0.49718 17.9529 1.4 20.0969 -89.1326 -18.0068
1620 1.24718 17.9529 1.4 19.3526 -77.9091 -15.2403
1621 1.99718 17.9529 1.4 18.6089 -74.3733 -70.0618
1622 2.74718 17.9529 1.4 17.8657 -75.608 134.218
1623 3.49718 17.9529 1.4 17.123 -73.8992 7.97251
1624 4.24718 17.9529 1.4 16.3811 -58.6958 20.4711
1625 4.99718 17.9529 1.4 15.6399 -61.9073 84.8917
1626 5.74718 17.9529 1.4 14.8995 -63.9678 -178.223
1627 6.49718 17.9529 1.4 14.1602 -69.2335 -172.206
1628 7.24718 17.9529 1.4 13.4221 -60.4122 -70.1816
1629 7.99718 17.9529 1.4 12.6854 -60.7645 -34.4129
1630 8.74718 17.9529 1.4 11.9503 -59.1921 -63.6533
1631 9.49718 17.9529 1.4 11.2173 -66.4235 157.574
1632 10.2472 17.9529 1.4 10.4866 -59.1912 142.678
1633 10.9972 17.9529 1.4 9.75879 -55.1268 -132.428
1634 11.7472 17.9529 1.4 9.03466 -64.1616 -155.977
1635 12.4972 17.9529 1.4 8.31512 -56.2369 170.971
1636 13.2472 17.9529 1.4 7.60147 -53.8118 121.905
1637 13.9972 17.9529 1.4 6.89554 -49.499 93.1684
1638 14.7472 17.9529 1.4 6.19996 -54.4714 1.28573
1639 15.4972 17.9529 1.4 5.51866 -52.4636 -94.7635
1640 16.2472 17.9529 1.4 4.85764 -52.1472 55.119
1641 16.9972 17.9529 1.4 4.22643 -49.8523 131.541
1642 17.7472 17.9529 1.4 3.64058 -41.627 57.0839
1643 18.4972 17.9529 1.4 3.12568 -44.0296 148.33
1644 19.2472 17.9529 1.4 2.72231 -45.4914 -150.865
1645 19.9972 17.9529 1.4 2.48537 -47.3958 159.456
1646 20.7472 17.9529 1.4 2.46336 -39.246 -115.624
1647 21.4972 17.9529 1.4 2.66162 -47.1199 135.482
1648 22.2472 17.9529 1.4 3.03732 -43.8126 124.121
1649 22.9972 17.9529 1.4 3.53432 -46.7725 52.1071
1650 23.7472 17.9529 1.4 4.10883 -43.6378 137.273
1651 24.4972 17.9529 1.4 4.73271 -51.0822 64.0572
1652 25.2472 17.9529 1.4 5.38884 -49.8843 -136.607
1653 25.9972 17.9529 1.4 6.06677 -65.1269 -43.9418
1654 26.7472 17.9529 1.4 6.75994 -51.0959 -179.424
1655 27.4972 17.9529 1.4 7.46411 -53.27 153.839
1656 28.2472 17.9529 1.4 8.17643 -55.617 -128.146
1657 28.9972 17.9529 1.4 8.89494 -67.9986 8.43251
1658 29.7472 17.9529 1.4 9.61827 -67.2468 -20.5457
1659 30.4972 17.9529 1.4 10.3454 -60.3654 41.0886
1660 -28.0028 18.7029 1.4 48.4772 -250 0
1661 -27.2528 18.7029 1.4 47.7277 -250 0
1662 -26.5028 18.7029 1.4 46.9782 -250 0
1663 -25.7528 18.7029 1.4 46.2287 -250 0
1664 -25.0028 18.7029 1.4 45.4792 -250 0
1665 -24.2528 18.7029 1.4 44.7297 -250 0
1666 -23.5028 18.7029 1.4 43.9803 -250 0
1667 -22.7528 18.7029 1.4 43.2308 -250 0
1668 -22.0028 18.7029 1.4 42.4814 -250 0
1669 -21.2528 18.7029 1.4 41.732 -250 0
1670 -20.5028 18.7029 1.4 40.9827 -155.123 99.0249
1671 -19.7528 18.7029 1.4 40.2333 -155.618 45.9723
1672 -19.0028 18.7029 1.4 39.484 -250 0
1673 -18.2528 18.7029 1.4 38.7347 -250 0
1674 -17.5028 18.7029 1.4 37.9854 -250 0
1675 -16.7528 18.7029 1.4 37.2362 -112.947 -24.6789
1676 -16.0028 18.7029 1.4 36.487 -118.185 -164.717
1677 -15.2528 18.7029 1.4 35.7378 -110.696 94.0152
1678 -14.5028 18.7029 1.4 34.9887 -107.725 -46.5589
1679 -13.7528 18.7029 1.4 34.2396 -112.572 -68.9683
1680 -13.0028 18.7029 1.4 33.4905 -93.3536 -71.4152
1681 -12.2528 18.7029 1.4 32.7415 -100.629 7.66579
1682 -11.5028 18.7029 1.4 31.9925 -104.043 152.653
1683 -10.7528 18.7029 1.4 31.2436 -100.02 -117.292
1684 -10.0028 18.7029 1.4 30.4947 -81.0426 18.7517
1685 -9.25282 18.7029 1.4 29.7459 -80.1341 -10.4519
1686 -8.50282 18.7029 1.4 28.9972 -100.617 45.6104
1687 -7.75282 18.7029 1.4 28.2485 -114.256 -57.2943
1688 -7.00282 18.7029 1.4 27.4999 -95.5496 -133.04
1689 -6.25282 18.7029 1.4 26.7513 -86.537 -167.9
1690 -5.50282 18.7029 1.4 26.0029 -88.8407 -91.3004
1691 -4.75282 18.7029 1.4 25.2545 -89.7948 158.788
1692 -4.00282 18.7029 1.4 24.5063 -94.989 -38.6373
1693 -3.25282 18.7029 1.4 23.7581 -91.6401 175.731
1694 -2.50282 18.7029 1.4 23.0101 -93.4277 39.6641
1695 -1.75282 18.7029 1.4 22.2622 -84.8868 115.21
1696 -1.00282 18.7029 1.4 21.5145 -98.0711 -49.0232
1697 -0.25282 18.7029 1.4 20.7669 -84.6451 64.5149
1698 0.49718 18.7029 1.4 20.0195 -89.1737 -158.298
1699 1.24718 18.7029 1.4 19.2723 -74.3297 44.7152
1700 1.99718 18.7029 1.4 18.5253 -79.2357 -136.506
1701 2.74718 18.7029 1.4 17.7786 -92.6365 -135.304
1702 3.49718 18.7029 1.4 17.0321 -64.7259 -172.372
1703 4.24718 18.7029 1.4 16.286 -55.8221 -44.9354
1704 4.99718 18.7029 1.4 15.5403 -60.3526 -8.51717
1705 5.74718 18.7029 1.4 14.795 -56.1559 58.4818
1706 6.49718 18.7029 1.4 14.0502 -67.5782 46.4573
1707 7.24718 18.7029 1.4 13.306 -60.2966 132.339
1708 7.99718 18.7029 1.4 12.5625 -78.9149 -154.742
1709 8.74718 18.7029 1.4 11.8197 -62.6861 -143.763
1710 9.49718 18.7029 1.4 11.078 -63.8061 -152.331
1711 10.2472 18.7029 1.4 10.3375 -66.229 15.8866
1712 10.9972 18.7029 1.4 9.59841 -68.5718 112.007
1713 11.7472 18.7029 1.4 8.86118 -65.1936 159.127
1714 12.4972 18.7029 1.4 8.12629 -66.0301 -55.3596
1715 13.2472 18.7029 1.4 7.39444 -65.5846 -11.1685
1716 13.9972 18.7029 1.4 6.66662 -54.1096 6.27149
1717 14.7472 18.7029 1.4 5.94432 -47.8589 32.1194
1718 15.4972 18.7029 1.4 5.22982 -54.2289 -47.6205
1719 16.2472 18.7029 1.4 4.52682 -49.7596 -136.53
1720 16.9972 18.7029 1.4 3.84163 -44.7711 155.499
1721 17.7472 18.7029 1.4 3.18578 -53.779 -6.31435
1722 18.4972 18.7029 1.4 2.58172 -36.7982 -75.8993
1723 19.2472 18.7029 1.4 2.07518 -38.8192 -4.22079
1724 19.9972 18.7029 1.4 1.75285 -44.1634 -158.879
1725 20.7472 18.7029 1.4 1.7215 -40.9263 -116.808
1726 21.4972 18.7029 1.4 1.9949 -45.481 -15.3775
1727 22.2472 18.7029 1.4 2.47401 -43.1561 -43.5749
1728 22.9972 18.7029 1.4 3.06379 -42.6577 -27.1536
1729 23.7472 18.7029 1.4 3.71186 -58.8385 -175.52
1730 24.4972 18.7029 1.4 4.39249 -51.0063 -103.87
1731 25.2472 18.7029 1.4 5.09265 -51.9551 104.663
1732 25.9972 18.7029 1.4 5.80527 -51.1077 57.0297
1733 26.7472 18.7029 1.4 6.52627 -48.3845 135.255
1734 27.4972 18.7029 1.4 7.25316 -57.5495 100.647
1735 28.2472 18.7029 1.4 7.98432 -60.2666 89.6013
1736 28.9972 18.7029 1.4 8.71868 -58.2986 34.8672
1737 29.7472 18.7029 1.4 9.4555 -55.381 34.812
1738 30.4972 18.7029 1.4 10.1942 -59.4398 -15.3258
1739 -28.0028 19.4529 1.4 48.4568 -250 0
1740 -27.2528 19.4529 1.4 47.707 -250 0
1741 -26.5028 19.4529 1.4 46.9571 -250 0
1742 -25.7528 19.4529 1.4 46.2073 -250 0
1743 -25.0028 19.4529 1.4 45.4574 -250 0
1744 -24.2528 19.4529 1.4 44.7076 -250 0
1745 -23.5028 19.4529 1.4 43.9578 -250 0
1746 -22.7528 19.4529 1.4 43.2079 -250 0
1747 -22.0028 19.4529 1.4 42.4581 -250 0
1748 -21.2528 19.4529 1.4 41.7083 -250 0
1749 -20.5028 19.4529 1.4 40.9585 -250 0
1750 -19.7528 19.4529 1.4 40.2087 -250 0
1751 -19.0028 19.4529 1.4 39.4589 -250 0
1752 -18.2528 19.4529 1.4 38.7091 -250 0
1753 -17.5028 19.4529 1.4 37.9594 -250 0
1754 -16.7528 19.4529 1.4 37.2096 -100.707 -164.081
1755 -16.0028 19.4529 1.4 36.4599 -110.86 36.7041
1756 -15.2528 19.4529 1.4 35.7101 -114.597 108.069
1757 -14.5028 19.4529 1.4 34.9604 -113.957 122.014
1758 -13.7528 19.4529 1.4 34.2107 -96.0557 123.813
1759 -13.0028 19.4529 1.4 33.461 -99.8222 162.72
1760 -12.2528 19.4529 1.4 32.7113 -94.9639 -135.267
1761 -11.5028 19.4529 1.4 31.9616 -93.1639 42.8276
1762 -10.7528 19.4529 1.4 31.2119 -100.437 -98.3787
1763 -10.0028 19.4529 1.4 30.4623 -77.5475 94.2372
1764 -9.25282 19.4529 1.4 29.7126 -92.5931 -57.5911
1765 -8.50282 19.4529 1.4 28.963 -84.9679 -64.7872
1766 -7.75282 19.4529 1.4 28.2134 -93.9215 -68.5071
1767 -7.00282 19.4529 1.4 27.4639 -81.8789 -27.9733
1768 -6.25282 19.4529 1.4 26.7143 -82.2149 163.665
1769 -5.50282 19.4529 1.4 25.9648 -86.6748 -44.8939
1770 -4.75282 19.4529 1.4 25.2153 -94.1425 169.45
1771 -4.00282 19.4529 1.4 24.4659 -107.792 66.1829
1772 -3.25282 19.4529 1.4 23.7164 -92.0963 -76.1951
1773 -2.50282 19.4529 1.4 22.9671 -80.963 -126.218
1774 -1.75282 19.4529 1.4 22.2177 -92.9305 -146.873
1775 -1.00282 19.4529 1.4 21.4684 -96.1097 -12.3232
1776 -0.25282 19.4529 1.4 20.7192 -84.8088 -140.576
1777 0.49718 19.4529 1.4 19.97 -74.4465 156.685
1778 1.24718 19.4529 1.4 19.2208 -74.3008 -1.86383
1779 1.99718 19.4529 1.4 18.4718 -84.5187 3.35472
1780 2.74718 19.4529 1.4 17.7228 -92.5374 55.4493
1781 3.49718 19.4529 1.4 16.9739 -63.791 106.248
1782 4.24718 19.4529 1.4 16.2251 -59.6325 173.838
1783 4.99718 19.4529 1.4 15.4765 -63.7623 -150.332
1784 5.74718 19.4529 1.4 14.7279 -59.4894 -138.41
1785 6.49718 19.4529 1.4 13.9796 -59.5072 -110.44
1786 7.24718 19.4529 1.4 13.2314 -70.1205 133.482
1787 7.99718 19.4529 1.4 12.4834 -75.1734 103.392
1788 8.74718 19.4529 1.4 11.7357 -69.4224 114.869
1789 9.49718 19.4529 1.4 10.9883 -68.1444 167.538
1790 10.2472 19.4529 1.4 10.2413 -58.8807 -116.811
1791 10.9972 19.4529 1.4 9.49473 -54.9459 -37.7491
1792 11.7472 19.4529 1.4 8.74877 -56.6878 14.5061
1793 12.4972 19.4529 1.4 8.00356 -61.4865 2.89765
1794 13.2472 19.4529 1.4 7.25935 -59.1714 104.951
1795 13.9972 19.4529 1.4 6.51646 -49.2522 -163.559
1796 14.7472 19.4529 1.4 5.7754 -51.3923 -158.579
1797 15.4972 19.4529 1.4 5.037 -55.4593 50.1184
1798 16.2472 19.4529 1.4 4.30261 -47.8739 -25.9889
1799 16.9972 19.4529 1.4 3.57471 -58.0268 148.396
1800 17.7472 19.4529 1.4 2.85826 -43.4463 148.366
1801 18.4972 19.4529 1.4 2.16465 -40.2984 77.0424
1802 19.2472 19.4529 1.4 1.52538 -47.3194 158.449
1803 19.9972 19.4529 1.4 1.0454 -32.0293 173
1804 20.7472 19.4529 1.4 0.991944 -30.344 -62.5063
1805 21.4972 19.4529 1.4 1.41423 -39.4254 178.188
1806 22.2472 19.4529 1.4 2.03497 -49.688 103.237
1807 22.9972 19.4529 1.4 2.72162 -47.145 -154.273
1808 23.7472 19.4529 1.4 3.43486 -50.1395 -73.2988
1809 24.4972 19.4529 1.4 4.16105 -46.5933 -91.6887
1810 25.2472 19.4529 1.4 4.89443 -52.8551 -156.985
1811 25.9972 19.4529 1.4 5.63219 -52.331 166.546
1812 26.7472 19.4529 1.4 6.3728 -56.8506 156.499
1813 27.4972 19.4529 1.4 7.11538 -59.7332 119.113
1814 28.2472 19.4529 1.4 7.85937 -62.0858 101.267
1815 28.9972 19.4529 1.4 8.60441 -57.1126 -43.1954
1816 29.7472 19.4529 1.4 9.35024 -57.2507 -16.6163
1817 30.4972 19.4529 1.4 10.0967 -59.5513 -96.6038
1818 -28.0028 20.2029 1.4 48.448 -250 0
1819 -27.2528 20.2029 1.4 47.698 -250 0
1820 -26.5028 20.2029 1.4 46.948 -250 0
1821 -25.7528 20.2029 1.4 46.198 -250 0
1822 -25.0028 20.2029 1.4 45.448 -250 0
1823 -24.2528 20.2029 1.4 44.698 -250 0
1824 -23.5028 20.2029 1.4 43.948 -250 0
1825 -22.7528 20.2029 1.4 43.1981 -250 0
1826 -22.0028 20.2029 1.4 42.4481 -250 0
1827 -21.2528 20.2029 1.4 41.6981 -250 0
1828 -20.5028 20.2029 1.4 40.9481 -250 0
1829 -19.7528 20.2029 1.4 40.1981 -250 0
1830 -19.0028 20.2029 1.4 39.4481 -250 0
1831 -18.2528 20.2029 1.4 38.6981 -250 0
1832 -17.5028 20.2029 1.4 37.9481 -250 0
1833 -16.7528 20.2029 1.4 37.1981 -110.81 -166.043
1834 -16.0028 20.2029 1.4 36.4481 -120.23 153.106
1835 -15.2528 20.2029 1.4 35.6981 -95.5904 -137.572
1836 -14.5028 20.2029 1.4 34.9482 -96.3115 -55.5629
1837 -13.7528 20.2029 1.4 34.1982 -112.436 -149.78
1838 -13.0028 20.2029 1.4 33.4482 -95.4602 2.84725
1839 -12.2528 20.2029 1.4 32.6982 -98.211 158.816
1840 -11.5028 20.2029 1.4 31.9482 -109.893 -1.75336
1841 -10.7528 20.2029 1.4 31.1982 -117.344 166.45
1842 -10.0028 20.2029 1.4 30.4482 -98.3285 32.0775
1843 -9.25282 20.2029 1.4 29.6983 -103.521 153.649
1844 -8.50282 20.2029 1.4 28.9483 -96.358 56.3521
1845 -7.75282 20.2029 1.4 28.1983 -91.0042 107.376
1846 -7.00282 20.2029 1.4 27.4483 -82.3929 -59.4981
1847 -6.25282 20.2029 1.4 26.6983 -89.5772 101.986
1848 -5.50282 20.2029 1.4 25.9483 -99.8591 114.31
1849 -4.75282 20.2029 1.4 25.1984 -93.2502 -64.6355
1850 -4.00282 20.2029 1.4 24.4484 -97.6051 -141.601
1851 -3.25282 20.2029 1.4 23.6984 -82.3138 -21.6745
1852 -2.50282 20.2029 1.4 22.9484 -99.2525 -38.6289
1853 -1.75282 20.2029 1.4 22.1985 -99.7725 149.29
1854 -1.00282 20.2029 1.4 21.4485 -88.2251 -8.05847
1855 -0.25282 20.2029 1.4 20.6985 -101.708 59.2289
1856 0.49718 20.2029 1.4 19.9486 -70.614 102.808
1857 1.24718 20.2029 1.4 19.1986 -80.884 -70.5142
1858 1.99718 20.2029 1.4 18.4486 -87.6299 166.553
1859 2.74718 20.2029 1.4 17.6987 -90.2407 -126.833
1860 3.49718 20.2029 1.4 16.9487 -59.5077 21.6046
1861 4.24718 20.2029 1.4 16.1988 -71.1515 48.8426
1862 4.99718 20.2029 1.4 15.4488 -62.572 72.8317
1863 5.74718 20.2029 1.4 14.6989 -63.1136 35.4249
1864 6.49718 20.2029 1.4 13.949 -59.8459 -13.9499
1865 7.24718 20.2029 1.4 13.199 -62.892 -114.624
1866 7.99718 20.2029 1.4 12.4491 -60.1063 165.554
1867 8.74718 20.2029 1.4 11.6992 -59.8893 -152.321
1868 9.49718 20.2029 1.4 10.9493 -62.0776 -96.1232
1869 10.2472 20.2029 1.4 10.1995 -68.8879 -50.9702
1870 10.9972 20.2029 1.4 9.44962 -60.7722 -152.853
1871 11.7472 20.2029 1.4 8.69979 -53.1754 129.94
1872 12.4972 20.2029 1.4 7.95 -55.0592 149.812
1873 13.2472 20.2029 1.4 7.20025 -56.3961 -112.631
1874 13.9972 20.2029 1.4 6.45055 -50.8522 -9.0757
1875 14.7472 20.2029 1.4 5.70094 -50.9881 53.6529
1876 15.4972 20.2029 1.4 4.95144 -49.0719 119.414
1877 16.2472 20.2029 1.4 4.20213 -46.7695 140.465
1878 16.9972 20.2029 1.4 3.45311 -51.3215 -168.843
1879 17.7472 20.2029 1.4 2.70463 -42.1127 -67.5263
1880 18.4972 20.2029 1.4 1.95732 -43.9583 29.7367
1881 19.2472 20.2029 1.4 1.21334 -39.0161 73.8794
1882 19.9972 20.2029 1.4 0.488136 -32.9999 -8.04975
1883 20.7472 20.2029 1.4 0.359664 -28.9225 -2.52687
1884 21.4972 20.2029 1.4 1.07025 -39.6919 27.6902
1885 22.2472 20.2029 1.4 1.81288 -43.3052 -20.7492
1886 22.9972 20.2029 1.4 2.55981 -46.5657 -78.1952
1887 23.7472 20.2029 1.4 3.30812 -55.6162 -172.795
1888 24.4972 20.2029 1.4 4.05706 -49.592 -178.147
1889 25.2472 20.2029 1.4 4.80633 -51.4035 133.809
1890 25.9972 20.2029 1.4 5.5558 -55.8862 83.1925
1891 26.7472 20.2029 1.4 6.3054 -74.9301 -84.1779
1892 27.4972 20.2029 1.4 7.05508 -56.8394 -41.1614
1893 28.2472 20.2029 1.4 7.80482 -59.5602 -114.611
1894 28.9972 20.2029 1.4 8.5546 -65.3247 86.1109
1895 29.7472 20.2029 1.4 9.30443 -57.6613 49.6577
1896 30.4972 20.2029 1.4 10.0543 -60.5654 40.0971
