#Rx
# X(m), Y(m), Z(m), Distance(m), Power (dBm) Phase (deg)
1 -28.0028 2.95289 1.4 35.4418 -137.242 122.667
2 -27.2528 2.95289 1.4 34.7367 -150.045 60.762
3 -26.5028 2.95289 1.4 34.0335 -147.769 8.59334
4 -25.7528 2.95289 1.4 33.3324 -149.211 -70.621
5 -25.0028 2.95289 1.4 32.6335 -144.972 76.0751
6 -24.2528 2.95289 1.4 31.9369 -148.765 -150.846
7 -23.5028 2.95289 1.4 31.2427 -133.214 -118.289
8 -22.7528 2.95289 1.4 30.5512 -135.085 -31.7173
9 -22.0028 2.95289 1.4 29.8625 -136.525 144.621
10 -21.2528 2.95289 1.4 29.1769 -143.707 128.753
11 -20.5028 2.95289 1.4 28.4945 -108.081 -178.57
12 -19.7528 2.95289 1.4 27.8155 -103.803 97.0109
13 -19.0028 2.95289 1.4 27.1403 -106.182 -96.3335
14 -18.2528 2.95289 1.4 26.4692 -105.537 -60.1524
15 -17.5028 2.95289 1.4 25.8024 -101.424 -122.512
16 -16.7528 2.95289 1.4 25.1402 -74.7379 40.8217
17 -16.0028 2.95289 1.4 24.4831 -77.3654 -115.826
18 -15.2528 2.95289 1.4 23.8316 -86.6331 -157.869
19 -14.5028 2.95289 1.4 23.1859 -78.9036 75.5557
20 -13.7528 2.95289 1.4 22.5468 -71.4969 178.122
21 -13.0028 2.95289 1.4 21.9146 -70.2641 -136.747
22 -12.2528 2.95289 1.4 21.2901 -78.4332 -8.83255
23 -11.5028 2.95289 1.4 20.674 -72.1692 -53.5811
24 -10.7528 2.95289 1.4 20.067 -69.7301 -27.0812
25 -10.0028 2.95289 1.4 19.4699 -65.66 -64.6407
26 -9.25282 2.95289 1.4 18.8838 -66.077 -121.423
27 -8.50282 2.95289 1.4 18.3096 -67.4057 132.602
28 -7.75282 2.95289 1.4 17.7485 -79.1953 60.3968
29 -7.00282 2.95289 1.4 17.2019 -70.3833 -93.5146
30 -6.25282 2.95289 1.4 16.671 -72.2993 32.0508
31 -5.50282 2.95289 1.4 16.1576 -67.4363 64.6508
32 -4.75282 2.95289 1.4 15.6632 -69.7464 45.4096
33 -4.00282 2.95289 1.4 15.1898 -78.4601 26.2008
34 -3.25282 2.95289 1.4 14.7394 -62.6638 174.748
35 -2.50282 2.95289 1.4 14.3141 -66.1523 117.593
36 -1.75282 2.95289 1.4 13.9163 -72.344 132.505
37 -1.00282 2.95289 1.4 13.5483 -88.8115 175.514
38 -0.25282 2.95289 1.4 13.2127 -76.8486 -8.52001
39 0.49718 2.95289 1.4 12.912 -69.1117 -147.126
40 1.24718 2.95289 1.4 12.6487 -60.5112 -151.351
41 1.99718 2.95289 1.4 12.4251 -63.8746 109.562
42 2.74718 2.95289 1.4 12.2435 -61.685 130.119
43 3.49718 2.95289 1.4 12.1056 -63.5137 -111.658
44 4.24718 2.95289 1.4 12.0131 -62.55 -56.9978
45 4.99718 2.95289 1.4 11.967 -69.3343 146.139
46 5.74718 2.95289 1.4 11.9678 -54.6052 91.0971
47 6.49718 2.95289 1.4 12.0155 -54.2823 -107.419
48 7.24718 2.95289 1.4 12.1096 -56.9972 110.088
49 7.99718 2.95289 1.4 12.2489 -56.6618 62.9035
50 8.74718 2.95289 1.4 12.432 -55.7236 -42.6135
51 9.49718 2.95289 1.4 12.657 -62.0968 -109.239
52 10.2472 2.95289 1.4 12.9216 -74.4083 -81.5911
53 10.9972 2.95289 1.4 13.2236 -65.3584 47.0009
54 11.7472 2.95289 1.4 13.5603 -69.2445 20.8686
55 12.4972 2.95289 1.4 13.9293 -69.6592 -53.3062
56 13.2472 2.95289 1.4 14.3281 -67.6384 -58.6917
57 13.9972 2.95289 1.4 14.7543 -70.9015 -167.516
58 14.7472 2.95289 1.4 15.2055 -73.5597 -35.6328
59 15.4972 2.95289 1.4 15.6797 -68.6875 -11.1577
60 16.2472 2.95289 1.4 16.1747 -91.3715 27.4688
61 16.9972 2.95289 1.4 16.6888 -77.9794 -136.977
62 17.7472 2.95289 1.4 17.2202 -82.1021 -72.7268
63 18.4972 2.95289 1.4 17.7673 -86.4088 -170.955
64 19.2472 2.95289 1.4 18.3289 -78.7727 131.057
65 19.9972 2.95289 1.4 18.9035 -80.2141 40.3152
66 20.7472 2.95289 1.4 19.49 -82.7567 -36.2964
67 21.4972 2.95289 1.4 20.0874 -83.7911 -105.156
68 22.2472 2.95289 1.4 20.6948 -77.0178 88.4735
69 22.9972 2.95289 1.4 21.3112 -80.1493 104.911
70 23.7472 2.95289 1.4 21.936 -80.4398 -29.5792
71 24.4972 2.95289 1.4 22.5684 -83.3862 -75.8437
72 25.2472 2.95289 1.4 23.2078 -79.9276 24.0661
73 25.9972 2.95289 1.4 23.8536 -76.6261 -85.4746
74 26.7472 2.95289 1.4 24.5054 -88.3053 -152.769
75 27.4972 2.95289 1.4 25.1626 -89.5636 134.9
76 28.2472 2.95289 1.4 25.8249 -85.1776 3.73178
77 28.9972 2.95289 1.4 26.4919 -98.5496 100.755
78 29.7472 2.95289 1.4 27.1632 -105.778 -41.7302
79 30.4972 2.95289 1.4 27.8385 -84.298 155.244
80 -28.0028 3.70289 1.4 35.1957 -136.058 -24.9606
81 -27.2528 3.70289 1.4 34.4856 -136.97 31.0782
82 -26.5028 3.70289 1.4 33.7772 -138.872 -15.9749
83 -25.7528 3.70289 1.4 33.0707 -145.985 -73.2443
84 -25.0028 3.70289 1.4 32.3661 -133.771 159.261
85 -24.2528 3.70289 1.4 31.6636 -133.632 -175.551
86 -23.5028 3.70289 1.4 30.9633 -133.877 -151.272
87 -22.7528 3.70289 1.4 30.2655 -131.681 -98.2485
88 -22.0028 3.70289 1.4 29.5701 -136.788 -127.753
89 -21.2528 3.70289 1.4 28.8775 -135.235 -35.1917
90 -20.5028 3.70289 1.4 28.1879 -99.1799 134.099
91 -19.7528 3.70289 1.4 27.5013 -99.8815 -174.026
92 -19.0028 3.70289 1.4 26.8182 -98.3466 151.316
93 -18.2528 3.70289 1.4 26.1388 -95.6768 32.4188
94 -17.5028 3.70289 1.4 25.4633 -92.988 159.836
95 -16.7528 3.70289 1.4 24.7921 -74.8676 -26.3393
96 -16.0028 3.70289 1.4 24.1256 -82.0748 131.614
97 -15.2528 3.70289 1.4 23.4641 -81.9 -43.0463
98 -14.5028 3.70289 1.4 22.8081 -75.7552 91.5197
99 -13.7528 3.70289 1.4 22.158 -71.2463 -130.055
100 -13.0028 3.70289 1.4 21.5144 -74.9618 19.2579
101 -12.2528 3.70289 1.4 20.878 -65.812 84.1866
102 -11.5028 3.70289 1.4 20.2493 -80.0559 94.3455
103 -10.7528 3.70289 1.4 19.6291 -73.7594 149.484
104 -10.0028 3.70289 1.4 19.0183 -70.2409 -174.918
105 -9.25282 3.70289 1.4 18.4178 -69.6369 148.3
106 -8.50282 3.70289 1.4 17.8287 -71.4378 66.0949
107 -7.75282 3.70289 1.4 17.252 -70.5593 51.0365
108 -7.00282 3.70289 1.4 16.689 -72.1556 -58.3399
109 -6.25282 3.70289 1.4 16.1413 -69.6406 151.793
110 -5.50282 3.70289 1.4 15.6105 -76.1481 -112.837
111 -4.75282 3.70289 1.4 15.0982 -69.5103 -60.0916
112 -4.00282 3.70289 1.4 14.6065 -79.2109 -66.2532
113 -3.25282 3.70289 1.4 14.1375 -75.2613 132.362
114 -2.50282 3.70289 1.4 13.6936 -70.9719 -16.1578
115 -1.75282 3.70289 1.4 13.2772 -67.752 -128.706
116 -1.00282 3.70289 1.4 12.891 -71.3718 -96.6805
117 -0.25282 3.70289 1.4 12.5378 -78.8977 -12.087
118 0.49718 3.70289 1.4 12.2205 -66.454 24.205
119 1.24718 3.70289 1.4 11.9419 -65.3003 -38.3149
120 1.99718 3.70289 1.4 11.7048 -65.1586 -17.1301
121 2.74718 3.70289 1.4 11.5118 -62.7872 34.6021
122 3.49718 3.70289 1.4 11.3651 -69.4458 43.1549
123 4.24718 3.70289 1.4 11.2666 -58.8866 41.4239
124 4.99718 3.70289 1.4 11.2174 -71.9397 61.3194
125 5.74718 3.70289 1.4 11.2182 -64.5542 24.1632
126 6.49718 3.70289 1.4 11.2691 -54.62 -158.275
127 7.24718 3.70289 1.4 11.3693 -53.9144 126.924
128 7.99718 3.70289 1.4 11.5176 -58.495 135.816
129 8.74718 3.70289 1.4 11.7122 -56.8848 -153.269
130 9.49718 3.70289 1.4 11.9507 -68.0407 -94.4441
131 10.2472 3.70289 1.4 12.2306 -80.3693 -35.3259
132 10.9972 3.70289 1.4 12.5492 -70.2115 93.8921
133 11.7472 3.70289 1.4 12.9036 -66.6149 -147.125
134 12.4972 3.70289 1.4 13.2908 -68.5697 5.53909
135 13.2472 3.70289 1.4 13.7082 -58.5822 -37.5592
136 13.9972 3.70289 1.4 14.1531 -72.9799 157.94
137 14.7472 3.70289 1.4 14.6229 -67.2743 -130.119
138 15.4972 3.70289 1.4 15.1153 -72.0584 -176.413
139 16.2472 3.70289 1.4 15.6282 -85.8484 39.6189
140 16.9972 3.70289 1.4 16.1597 -82.2759 -48.2482
141 17.7472 3.70289 1.4 16.7079 -78.994 16.4244
142 18.4972 3.70289 1.4 17.2713 -80.8992 62.8172
143 19.2472 3.70289 1.4 17.8485 -77.9322 29.5004
144 19.9972 3.70289 1.4 18.4381 -77.701 23.3982
145 20.7472 3.70289 1.4 19.0389 -77.1911 -84.539
146 21.4972 3.70289 1.4 19.6501 -81.5471 -165.937
147 22.2472 3.70289 1.4 20.2705 -82.6236 52.5964
148 22.9972 3.70289 1.4 20.8995 -78.1428 -37.6729
149 23.7472 3.70289 1.4 21.5362 -78.9236 -36.1055
150 24.4972 3.70289 1.4 22.18 -75.5347 -104.08
151 25.2472 3.70289 1.4 22.8303 -81.3144 146.357
152 25.9972 3.70289 1.4 23.4865 -95.5818 -95.7027
153 26.7472 3.70289 1.4 24.1482 -82.3916 -169.065
154 27.4972 3.70289 1.4 24.8149 -91.0549 -80.03
155 28.2472 3.70289 1.4 25.4862 -80.8865 -32.338
156 28.9972 3.70289 1.4 26.1618 -85.2054 -34.4137
157 29.7472 3.70289 1.4 26.8414 -82.7318 58.1411
158 30.4972 3.70289 1.4 27.5246 -91.5305 163.857
159 -28.0028 4.45289 1.4 34.964 -127.006 -24.7922
160 -27.2528 4.45289 1.4 34.2491 -134.648 -74.9973
161 -26.5028 4.45289 1.4 33.5358 -139.256 91.4296
162 -25.7528 4.45289 1.4 32.824 -132.337 175.36
163 -25.0028 4.45289 1.4 32.114 -147.728 -156.155
164 -24.2528 4.45289 1.4 31.4059 -131.222 39.4534
165 -23.5028 4.45289 1.4 30.6997 -140.001 -62.5832
166 -22.7528 4.45289 1.4 29.9957 -139.76 78.6345
167 -22.0028 4.45289 1.4 29.294 -138.737 104.697
168 -21.2528 4.45289 1.4 28.5947 -137.656 5.23798
169 -20.5028 4.45289 1.4 27.898 -91.199 122.787
170 -19.7528 4.45289 1.4 27.2042 -98.4843 -124.347
171 -19.0028 4.45289 1.4 26.5135 -103.458 139.755
172 -18.2528 4.45289 1.4 25.826 -105.012 102.464
173 -17.5028 4.45289 1.4 25.1421 -88.4511 116.746
174 -16.7528 4.45289 1.4 24.4621 -78.8007 -136.154
175 -16.0028 4.45289 1.4 23.7863 -87.8663 -109.648
176 -15.2528 4.45289 1.4 23.1151 -78.6059 -58.9833
177 -14.5028 4.45289 1.4 22.4489 -71.868 83.5585
178 -13.7528 4.45289 1.4 21.7881 -68.5317 -99.448
179 -13.0028 4.45289 1.4 21.1333 -71.0704 77.1529
180 -12.2528 4.45289 1.4 20.485 -75.8462 162.603
181 -11.5028 4.45289 1.4 19.8439 -72.8432 -65.3651
182 -10.7528 4.45289 1.4 19.2106 -69.873 -67.0114
183 -10.0028 4.45289 1.4 18.5861 -71.3867 -38.7785
184 -9.25282 4.45289 1.4 17.9711 -70.1177 41.9236
185 -8.50282 4.45289 1.4 17.3668 -89.6876 97.3753
186 -7.75282 4.45289 1.4 16.7742 -70.6971 -11.6045
187 -7.00282 4.45289 1.4 16.1947 -70.367 -71.503
188 -6.25282 4.45289 1.4 15.6297 -65.3555 -158.432
189 -5.50282 4.45289 1.4 15.0809 -72.9372 50.5674
190 -4.75282 4.45289 1.4 14.55 -81.1257 177.687
191 -4.00282 4.45289 1.4 14.0391 -69.4546 -136.388
192 -3.25282 4.45289 1.4 13.5505 -61.4588 119.224
193 -2.50282 4.45289 1.4 13.0866 -65.0947 103.828
194 -1.75282 4.45289 1.4 12.6502 -63.0578 -83.0066
195 -1.00282 4.45289 1.4 12.2443 -74.8544 27.6768
196 -0.25282 4.45289 1.4 11.8719 -65.7758 32.6115
197 0.49718 4.45289 1.4 11.5363 -62.5235 138.926
198 1.24718 4.45289 1.4 11.2407 -60.2673 80.5162
199 1.99718 4.45289 1.4 10.9886 -69.7293 42.8931
200 2.74718 4.45289 1.4 10.7827 -65.4225 1.3108
201 3.49718 4.45289 1.4 10.626 -67.1838 146.578
202 4.24718 4.45289 1.4 10.5205 -66.0406 158.611
203 4.99718 4.45289 1.4 10.4678 -58.8989 -97.7744
204 5.74718 4.45289 1.4 10.4687 -63.9949 77.2448
205 6.49718 4.45289 1.4 10.5232 -56.6276 -39.1577
206 7.24718 4.45289 1.4 10.6305 -55.2116 162.507
207 7.99718 4.45289 1.4 10.7889 -56.7755 65.0358
208 8.74718 4.45289 1.4 10.9964 -61.384 -92.2567
209 9.49718 4.45289 1.4 11.2501 -55.1161 -138.06
210 10.2472 4.45289 1.4 11.547 -72.2958 121.556
211 10.9972 4.45289 1.4 11.8839 -64.6436 -116.13
212 11.7472 4.45289 1.4 12.2575 -71.5257 9.40715
213 12.4972 4.45289 1.4 12.6646 -57.4159 164.671
214 13.2472 4.45289 1.4 13.1019 -59.3211 -111.035
215 13.9972 4.45289 1.4 13.5667 -67.037 105.754
216 14.7472 4.45289 1.4 14.0561 -75.8764 12.7084
217 15.4972 4.45289 1.4 14.5677 -78.5949 -152.348
218 16.2472 4.45289 1.4 15.0992 -75.398 68.3852
219 16.9972 4.45289 1.4 15.6487 -87.5296 147.535
220 17.7472 4.45289 1.4 16.2142 -82.1156 -171.725
221 18.4972 4.45289 1.4 16.7942 -75.4671 -145.31
222 19.2472 4.45289 1.4 17.3872 -80.2106 -130.822
223 19.9972 4.45289 1.4 17.9919 -80.167 -109.983
224 20.7472 4.45289 1.4 18.6072 -85.6128 -135.99
225 21.4972 4.45289 1.4 19.232 -72.864 153.51
226 22.2472 4.45289 1.4 19.8655 -74.2214 110.856
227 22.9972 4.45289 1.4 20.5069 -83.6931 1.69487
228 23.7472 4.45289 1.4 21.1554 -73.4704 -163.048
229 24.4972 4.45289 1.4 21.8105 -73.6653 -38.0731
230 25.2472 4.45289 1.4 22.4714 -78.5351 117.614
231 25.9972 4.45289 1.4 23.1378 -81.8525 -58.555
232 26.7472 4.45289 1.4 23.8092 -85.4469 118.556
233 27.4972 4.45289 1.4 24.4852 -85.9874 -171.882
234 28.2472 4.45289 1.4 25.1653 -78.4362 168.612
235 28.9972 4.45289 1.4 25.8493 -81.4109 -153.928
236 29.7472 4.45289 1.4 26.5369 -87.0853 -102.595
237 30.4972 4.45289 1.4 27.2277 -87.5984 -44.9192
238 -28.0028 5.20289 1.4 34.747 -116.553 -33.3214
239 -27.2528 5.20289 1.4 34.0275 -95.1074 86.091
240 -26.5028 5.20289 1.4 33.3094 -123.289 168.7
241 -25.7528 5.20289 1.4 32.5927 -114.416 -43.7313
242 -25.0028 5.20289 1.4 31.8776 -115.637 -159.808
243 -24.2528 5.20289 1.4 31.1641 -137.507 -50.3364
244 -23.5028 5.20289 1.4 30.4523 -127.902 -112.328
245 -22.7528 5.20289 1.4 29.7424 -137.75 -89.0928
246 -22.0028 5.20289 1.4 29.0346 -143.226 -98.6475
247 -21.2528 5.20289 1.4 28.3289 -133.871 62.0716
248 -20.5028 5.20289 1.4 27.6255 -111.824 54.7155
249 -19.7528 5.20289 1.4 26.9247 -90.26 -146.703
250 -19.0028 5.20289 1.4 26.2266 -107.059 -84.2237
251 -18.2528 5.20289 1.4 25.5314 -96.6222 56.016
252 -17.5028 5.20289 1.4 24.8394 -90.9468 27.5699
253 -16.7528 5.20289 1.4 24.1509 -85.3614 108.786
254 -16.0028 5.20289 1.4 23.4661 -86.0119 -130.438
255 -15.2528 5.20289 1.4 22.7855 -86.6943 162.867
256 -14.5028 5.20289 1.4 22.1093 -91.2846 41.245
257 -13.7528 5.20289 1.4 21.4381 -76.8832 -36.2398
258 -13.0028 5.20289 1.4 20.7723 -83.2278 96.5213
259 -12.2528 5.20289 1.4 20.1123 -75.0168 -179.735
260 -11.5028 5.20289 1.4 19.4589 -70.6842 -116.191
261 -10.7528 5.20289 1.4 18.8127 -82.9895 -35.3533
262 -10.0028 5.20289 1.4 18.1745 -69.2144 148.942
263 -9.25282 5.20289 1.4 17.5451 -84.3325 -119.858
264 -8.50282 5.20289 1.4 16.9256 -73.7622 -91.2817
265 -7.75282 5.20289 1.4 16.317 -72.1067 -117.219
266 -7.00282 5.20289 1.4 15.7207 -73.5084 -101.929
267 -6.25282 5.20289 1.4 15.138 -71.8749 -155.356
268 -5.50282 5.20289 1.4 14.5706 -68.0275 83.6524
269 -4.75282 5.20289 1.4 14.0204 -71.3891 -58.3435
270 -4.00282 5.20289 1.4 13.4895 -69.13 85.3773
271 -3.25282 5.20289 1.4 12.9802 -59.908 31.4372
272 -2.50282 5.20289 1.4 12.4952 -70.3943 -17.0333
273 -1.75282 5.20289 1.4 12.0374 -66.5132 -56.8486
274 -1.00282 5.20289 1.4 11.61 -63.0555 89.597
275 -0.25282 5.20289 1.4 11.2166 -67.0794 139.899
276 0.49718 5.20289 1.4 10.8607 -60.1545 67.1333
277 1.24718 5.20289 1.4 10.5463 -62.3509 -177.976
278 1.99718 5.20289 1.4 10.2771 -69.1112 -20.3383
279 2.74718 5.20289 1.4 10.0567 -62.9358 1.42516
280 3.49718 5.20289 1.4 9.88847 -70.2093 118.483
281 4.24718 5.20289 1.4 9.77502 -55.7836 98.4967
282 4.99718 5.20289 1.4 9.71829 -63.5628 -149.168
283 5.74718 5.20289 1.4 9.71927 -63.38 150.595
284 6.49718 5.20289 1.4 9.77795 -54.8018 -87.0459
285 7.24718 5.20289 1.4 9.8933 -54.439 161.965
286 7.99718 5.20289 1.4 10.0634 -55.6952 4.90566
287 8.74718 5.20289 1.4 10.2855 -56.0713 74.8095
288 9.49718 5.20289 1.4 10.5563 -55.504 85.8663
289 10.2472 5.20289 1.4 10.8722 -74.7908 -18.6621
290 10.9972 5.20289 1.4 11.2293 -73.9673 40.6913
291 11.7472 5.20289 1.4 11.624 -63.5877 -43.099
292 12.4972 5.20289 1.4 12.0524 -60.4059 145.423
293 13.2472 5.20289 1.4 12.5112 -71.1556 -8.98649
294 13.9972 5.20289 1.4 12.9971 -89.0469 -175.114
295 14.7472 5.20289 1.4 13.5072 -92.2603 6.13541
296 15.4972 5.20289 1.4 14.0388 -81.4298 -156.064
297 16.2472 5.20289 1.4 14.5896 -76.4354 -10.5471
298 16.9972 5.20289 1.4 15.1575 -91.1517 161.193
299 17.7472 5.20289 1.4 15.7407 -100.948 67.7782
300 18.4972 5.20289 1.4 16.3375 -78.5563 12.0854
301 19.2472 5.20289 1.4 16.9465 -77.3442 57.3964
302 19.9972 5.20289 1.4 17.5664 -79.8368 58.2037
303 20.7472 5.20289 1.4 18.1961 -76.3555 90.2995
304 21.4972 5.20289 1.4 18.8346 -75.6744 65.6866
305 22.2472 5.20289 1.4 19.481 -74.3361 25.1794
306 22.9972 5.20289 1.4 20.1346 -80.2256 55.3143
307 23.7472 5.20289 1.4 20.7948 -67.5754 -139.652
308 24.4972 5.20289 1.4 21.4608 -70.7688 -171.865
309 25.2472 5.20289 1.4 22.1322 -76.6217 98.0691
310 25.9972 5.20289 1.4 22.8086 -77.52 -156.93
311 26.7472 5.20289 1.4 23.4893 -79.0004 -118.828
312 27.4972 5.20289 1.4 24.1742 -83.3504 78.0521
313 28.2472 5.20289 1.4 24.8629 -85.4667 109.697
314 28.9972 5.20289 1.4 25.555 -82.996 82.0642
315 29.7472 5.20289 1.4 26.2503 -88.2655 134.448
316 30.4972 5.20289 1.4 26.9485 -83.3956 -18.4109
317 -28.0028 5.95289 1.4 34.5449 -100.641 140.66
318 -27.2528 5.95289 1.4 33.8211 -95.6006 45.5549
319 -26.5028 5.95289 1.4 33.0985 -112.133 144.255
320 -25.7528 5.95289 1.4 32.3772 -93.7737 -1.52338
321 -25.0028 5.95289 1.4 31.6572 -111.829 157.366
322 -24.2528 5.95289 1.4 30.9386 -132.964 168.913
323 -23.5028 5.95289 1.4 30.2215 -137.574 -79.331
324 -22.7528 5.95289 1.4 29.5061 -132.438 -1.25247
325 -22.0028 5.95289 1.4 28.7924 -136.645 -114.108
326 -21.2528 5.95289 1.4 28.0806 -140.776 -22.7876
327 -20.5028 5.95289 1.4 27.3709 -97.0636 37.0562
328 -19.7528 5.95289 1.4 26.6634 -88.9375 -118.962
329 -19.0028 5.95289 1.4 25.9582 -87.1432 -41.7175
330 -18.2528 5.95289 1.4 25.2557 -83.5261 119.163
331 -17.5028 5.95289 1.4 24.5559 -85.9218 -58.1237
332 -16.7528 5.95289 1.4 23.8592 -86.3338 -38.1104
333 -16.0028 5.95289 1.4 23.1658 -88.4529 84.9211
334 -15.2528 5.95289 1.4 22.4761 -91.3699 67.0818
335 -14.5028 5.95289 1.4 21.7903 -85.6558 -107.095
336 -13.7528 5.95289 1.4 21.1089 -88.9028 118.989
337 -13.0028 5.95289 1.4 20.4324 -89.5678 177.61
338 -12.2528 5.95289 1.4 19.7611 -69.3552 73.5557
339 -11.5028 5.95289 1.4 19.0957 -77.0663 -117.641
340 -10.7528 5.95289 1.4 18.4368 -72.9246 34.5867
341 -10.0028 5.95289 1.4 17.7851 -68.7363 138.614
342 -9.25282 5.95289 1.4 17.1414 -76.4047 -44.8662
343 -8.50282 5.95289 1.4 16.5067 -82.6538 42.4322
344 -7.75282 5.95289 1.4 15.8821 -75.3005 84.5512
345 -7.00282 5.95289 1.4 15.2687 -68.1249 63.6636
346 -6.25282 5.95289 1.4 14.6681 -76.473 104.859
347 -5.50282 5.95289 1.4 14.0818 -69.1333 41.365
348 -4.75282 5.95289 1.4 13.5117 -67.8384 -32.5718
349 -4.00282 5.95289 1.4 12.96 -64.842 -169.108
350 -3.25282 5.95289 1.4 12.429 -80.6545 -92.6251
351 -2.50282 5.95289 1.4 11.9216 -64.6342 -99.8418
352 -1.75282 5.95289 1.4 11.4409 -68.1761 -124.229
353 -1.00282 5.95289 1.4 10.9903 -68.4676 143.355
354 -0.25282 5.95289 1.4 10.5739 -64.1683 -84.5225
355 0.49718 5.95289 1.4 10.1956 -66.6862 -54.4262
356 1.24718 5.95289 1.4 9.86001 -73.0649 -80.9404
357 1.99718 5.95289 1.4 9.57152 -66.7811 -46.8989
358 2.74718 5.95289 1.4 9.33451 -66.6294 -92.4411
359 3.49718 5.95289 1.4 9.15298 -71.7159 -119.406
360 4.24718 5.95289 1.4 9.03029 -55.2133 89.8958
361 4.99718 5.95289 1.4 8.96885 -55.3078 43.6587
362 5.74718 5.95289 1.4 8.96992 -68.6452 66.9122
363 6.49718 5.95289 1.4 9.03347 -65.1397 131.628
364 7.24718 5.95289 1.4 9.1582 -57.2368 134.721
365 7.99718 5.95289 1.4 9.34167 -53.5079 26.1116
366 8.74718 5.95289 1.4 9.58049 -59.4096 110.795
367 9.49718 5.95289 1.4 9.87066 -54.8017 -82.5191
368 10.2472 5.95289 1.4 10.2078 -78.7652 145.483
369 10.9972 5.95289 1.4 10.5874 -64.5788 149.426
370 11.7472 5.95289 1.4 11.0051 -59.4618 -12.1312
371 12.4972 5.95289 1.4 11.4567 -59.1902 102.36
372 13.2472 5.95289 1.4 11.9384 -60.4511 -177.899
373 13.9972 5.95289 1.4 12.4467 -60.4455 -169.032
374 14.7472 5.95289 1.4 12.9784 -70.9044 2.03365
375 15.4972 5.95289 1.4 13.5308 -99.7221 -58.7292
376 16.2472 5.95289 1.4 14.1015 -110.637 -144.053
377 16.9972 5.95289 1.4 14.6883 -91.517 61.806
378 17.7472 5.95289 1.4 15.2894 -87.2181 82.582
379 18.4972 5.95289 1.4 15.9031 -87.4402 -172.327
380 19.2472 5.95289 1.4 16.5281 -79.5241 -146.139
381 19.9972 5.95289 1.4 17.1631 -79.4731 -94.7048
382 20.7472 5.95289 1.4 17.8071 -75.0787 -84.2551
383 21.4972 5.95289 1.4 18.459 -81.7962 76.9525
384 22.2472 5.95289 1.4 19.1182 -72.0784 -81.5437
385 22.9972 5.95289 1.4 19.7838 -73.7226 141.716
386 23.7472 5.95289 1.4 20.4553 -68.8283 86.8579
387 24.4972 5.95289 1.4 21.132 -72.1157 147.256
388 25.2472 5.95289 1.4 21.8136 -77.0621 60.7057
389 25.9972 5.95289 1.4 22.4995 -84.1494 -155.519
390 26.7472 5.95289 1.4 23.1893 -74.7994 -31.1368
391 27.4972 5.95289 1.4 23.8828 -80.7636 84.1946
392 28.2472 5.95289 1.4 24.5796 -82.0545 -55.8966
393 28.9972 5.95289 1.4 25.2795 -88.7879 -167.779
394 29.7472 5.95289 1.4 25.9821 -84.1339 175.117
395 30.4972 5.95289 1.4 26.6874 -93.563 -70.6432
396 -28.0028 6.70289 1.4 34.358 -119.46 -17.594
397 -27.2528 6.70289 1.4 33.6302 -98.5721 13.9165
398 -26.5028 6.70289 1.4 32.9034 -112.845 169.235
399 -25.7528 6.70289 1.4 32.1777 -127.265 -110.612
400 -25.0028 6.70289 1.4 31.4531 -106.401 130.216
401 -24.2528 6.70289 1.4 30.7297 -123.769 42.7847
402 -23.5028 6.70289 1.4 30.0077 -137.809 -83.991
403 -22.7528 6.70289 1.4 29.287 -140.865 -40.7661
404 -22.0028 6.70289 1.4 28.5679 -130.956 -13.0274
405 -21.2528 6.70289 1.4 27.8503 -133.476 58.4474
406 -20.5028 6.70289 1.4 27.1346 -107.728 157.6
407 -19.7528 6.70289 1.4 26.4207 -98.4225 66.2704
408 -19.0028 6.70289 1.4 25.7089 -87.6838 -120.757
409 -18.2528 6.70289 1.4 24.9994 -87.9306 41.5175
410 -17.5028 6.70289 1.4 24.2922 -97.9106 58.0786
411 -16.7528 6.70289 1.4 23.5877 -88.2614 56.5779
412 -16.0028 6.70289 1.4 22.8861 -87.5331 -89.0768
413 -15.2528 6.70289 1.4 22.1877 -84.3322 -173.067
414 -14.5028 6.70289 1.4 21.4928 -86.7766 35.2292
415 -13.7528 6.70289 1.4 20.8016 -89.2215 -161.32
416 -13.0028 6.70289 1.4 20.1147 -80.4304 84.7709
417 -12.2528 6.70289 1.4 19.4325 -80.8156 96.0679
418 -11.5028 6.70289 1.4 18.7554 -72.8435 -63.2596
419 -10.7528 6.70289 1.4 18.0841 -87.2492 27.2401
420 -10.0028 6.70289 1.4 17.4192 -78.5437 -152.098
421 -9.25282 6.70289 1.4 16.7615 -66.2309 11.8399
422 -8.50282 6.70289 1.4 16.1118 -83.746 76.6583
423 -7.75282 6.70289 1.4 15.4713 -68.1641 -167.05
424 -7.00282 6.70289 1.4 14.841 -72.2293 -66.3686
425 -6.25282 6.70289 1.4 14.2223 -69.412 -66.1346
426 -5.50282 6.70289 1.4 13.6168 -69.1598 -33.2185
427 -4.75282 6.70289 1.4 13.0264 -69.3602 -78.0002
428 -4.00282 6.70289 1.4 12.4532 -65.415 -172.824
429 -3.25282 6.70289 1.4 11.8996 -63.3341 -16.7886
430 -2.50282 6.70289 1.4 11.3686 -64.6096 147.434
431 -1.75282 6.70289 1.4 10.8634 -68.5849 128.683
432 -1.00282 6.70289 1.4 10.3879 -63.8073 98.2171
433 -0.25282 6.70289 1.4 9.94619 -62.1395 -68.8406
434 0.49718 6.70289 1.4 9.54311 -59.7085 17.2426
435 1.24718 6.70289 1.4 9.18368 -60.8793 -65.6971
436 1.99718 6.70289 1.4 8.87322 -69.4283 159.845
437 2.74718 6.70289 1.4 8.61703 -84.5566 163.084
438 3.49718 6.70289 1.4 8.42005 -66.4161 -60.0255
439 4.24718 6.70289 1.4 8.28652 -62.8056 -3.83758
440 4.99718 6.70289 1.4 8.21952 -53.7443 13.9643
441 5.74718 6.70289 1.4 8.22068 -61.3702 -156.811
442 6.49718 6.70289 1.4 8.28998 -53.5476 -94.6529
443 7.24718 6.70289 1.4 8.42573 -67.2531 -153.533
444 7.99718 6.70289 1.4 8.62479 -53.0663 16.0611
445 8.74718 6.70289 1.4 8.88291 -65.2872 -87.3761
446 9.49718 6.70289 1.4 9.19512 -68.8556 129.895
447 10.2472 6.70289 1.4 9.55611 -62.8702 -56.6674
448 10.9972 6.70289 1.4 9.96059 -63.0709 -170.813
449 11.7472 6.70289 1.4 10.4035 -61.3662 -34.3467
450 12.4972 6.70289 1.4 10.8801 -59.8162 30.2119
451 13.2472 6.70289 1.4 11.3862 -59.1422 8.61113
452 13.9972 6.70289 1.4 11.918 -58.9923 -38.4213
453 14.7472 6.70289 1.4 12.4723 -60.2441 125.418
454 15.4972 6.70289 1.4 13.0462 -69.9751 1.1549
455 16.2472 6.70289 1.4 13.6372 -84.4897 164.664
456 16.9972 6.70289 1.4 14.2431 -93.8873 -4.59735
457 17.7472 6.70289 1.4 14.8622 -86.4073 -145.752
458 18.4972 6.70289 1.4 15.4929 -86.0936 -117.217
459 19.2472 6.70289 1.4 16.1338 -86.4626 -20.0286
460 19.9972 6.70289 1.4 16.7837 -79.4528 17.3431
461 20.7472 6.70289 1.4 17.4417 -79.8248 69.2576
462 21.4972 6.70289 1.4 18.1068 -78.3316 156.85
463 22.2472 6.70289 1.4 18.7783 -74.4639 -10.3562
464 22.9972 6.70289 1.4 19.4556 -73.7393 -8.48008
465 23.7472 6.70289 1.4 20.138 -70.6485 89.4936
466 24.4972 6.70289 1.4 20.825 -68.7139 -116.295
467 25.2472 6.70289 1.4 21.5163 -77.2972 27.8303
468 25.9972 6.70289 1.4 22.2114 -74.2182 125.084
469 26.7472 6.70289 1.4 22.9099 -83.9608 131.992
470 27.4972 6.70289 1.4 23.6116 -83.9731 -166.911
471 28.2472 6.70289 1.4 24.3162 -81.6646 -27.4223
472 28.9972 6.70289 1.4 25.0234 -82.6932 -20.3192
473 29.7472 6.70289 1.4 25.7331 -73.5044 -77.9839
474 30.4972 6.70289 1.4 26.4449 -82.1412 -45.7389
475 -28.0028 7.45289 1.4 34.1865 -101.383 -106.397
476 -27.2528 7.45289 1.4 33.455 -103.341 -7.36109
477 -26.5028 7.45289 1.4 32.7243 -97.2563 -49.1144
478 -25.7528 7.45289 1.4 31.9945 -87.9112 -152.539
479 -25.0028 7.45289 1.4 31.2657 -91.1158 -32.5796
480 -24.2528 7.45289 1.4 30.5379 -136.417 -25.096
481 -23.5028 7.45289 1.4 29.8111 -110.551 -101.645
482 -22.7528 7.45289 1.4 29.0856 -134.719 145.224
483 -22.0028 7.45289 1.4 28.3614 -140.9 83.286
484 -21.2528 7.45289 1.4 27.6385 -124.025 73.7186
485 -20.5028 7.45289 1.4 26.9171 -85.2659 -84.0787
486 -19.7528 7.45289 1.4 26.1973 -88.5754 -13.421
487 -19.0028 7.45289 1.4 25.4793 -94.5842 -127.853
488 -18.2528 7.45289 1.4 24.7631 -98.7448 -106.157
489 -17.5028 7.45289 1.4 24.0491 -96.5808 -130.288
490 -16.7528 7.45289 1.4 23.3372 -83.0456 130.286
491 -16.0028 7.45289 1.4 22.6279 -81.8096 -114.338
492 -15.2528 7.45289 1.4 21.9212 -96.9528 -166.873
493 -14.5028 7.45289 1.4 21.2175 -85.1738 18.3998
494 -13.7528 7.45289 1.4 20.5171 -92.1012 122.626
495 -13.0028 7.45289 1.4 19.8204 -77.5718 3.70642
496 -12.2528 7.45289 1.4 19.1276 -78.4146 170.505
497 -11.5028 7.45289 1.4 18.4394 -92.9894 -45.0424
498 -10.7528 7.45289 1.4 17.7561 -71.6121 -173.494
499 -10.0028 7.45289 1.4 17.0785 -95.5343 61.9965
500 -9.25282 7.45289 1.4 16.4071 -70.617 -129.553
501 -8.50282 7.45289 1.4 15.7428 -72.1177 -93.504
502 -7.75282 7.45289 1.4 15.0866 -68.8831 -100.814
503 -7.00282 7.45289 1.4 14.4395 -74.3396 30.094
504 -6.25282 7.45289 1.4 13.8029 -75.3048 178.122
505 -5.50282 7.45289 1.4 13.1781 -71.9047 143.719
506 -4.75282 7.45289 1.4 12.5671 -70.1188 170.3
507 -4.00282 7.45289 1.4 11.9719 -66.5921 147.613
508 -3.25282 7.45289 1.4 11.395 -63.0494 13.435
509 -2.50282 7.45289 1.4 10.8393 -71.5531 -105.447
510 -1.75282 7.45289 1.4 10.3082 -65.3551 19.1809
511 -1.00282 7.45289 1.4 9.80576 -61.9809 32.4563
512 -0.25282 7.45289 1.4 9.33659 -62.6091 -47.6162
513 0.49718 7.45289 1.4 8.90596 -53.478 21.0069
514 1.24718 7.45289 1.4 8.51969 -58.2002 80.3076
515 1.99718 7.45289 1.4 8.18409 -65.7768 -145.865
516 2.74718 7.45289 1.4 7.90559 -65.8014 -178.313
517 3.49718 7.45289 1.4 7.69042 -75.7181 158.389
518 4.24718 7.45289 1.4 7.54398 -54.1322 -110.129
519 4.99718 7.45289 1.4 7.47032 -59.9387 166.343
520 5.74718 7.45289 1.4 7.4716 -60.8221 -40.6233
521 6.49718 7.45289 1.4 7.54778 -56.3793 -37.9944
522 7.24718 7.45289 1.4 7.69663 -60.8046 -136.423
523 7.99718 7.45289 1.4 7.91405 -55.9636 -91.9629
524 8.74718 7.45289 1.4 8.19459 -51.4649 -160.843
525 9.49718 7.45289 1.4 8.53202 -55.0325 -10.1677
526 10.2472 7.45289 1.4 8.91989 -61.5706 27.5337
527 10.9972 7.45289 1.4 9.35193 -62.2763 -160.291
528 11.7472 7.45289 1.4 9.82231 -64.4875 -79.3855
529 12.4972 7.45289 1.4 10.3258 -58.2911 -91.955
530 13.2472 7.45289 1.4 10.8578 -71.7657 -174.111
531 13.9972 7.45289 1.4 11.4142 -98.5621 86.3843
532 14.7472 7.45289 1.4 11.9918 -66.002 59.6009
533 15.4972 7.45289 1.4 12.5876 -80.9845 175.383
534 16.2472 7.45289 1.4 13.1991 -85.4053 -171.864
535 16.9972 7.45289 1.4 13.8243 -105.302 -121.723
536 17.7472 7.45289 1.4 14.4613 -85.7119 173.968
537 18.4972 7.45289 1.4 15.1088 -83.7011 -172.009
538 19.2472 7.45289 1.4 15.7653 -87.2648 121.724
539 19.9972 7.45289 1.4 16.4298 -78.9097 124.424
540 20.7472 7.45289 1.4 17.1014 -85.4385 67.2434
541 21.4972 7.45289 1.4 17.7792 -82.4146 169.513
542 22.2472 7.45289 1.4 18.4627 -66.2096 -106.752
543 22.9972 7.45289 1.4 19.1511 -69.726 -25.8857
544 23.7472 7.45289 1.4 19.844 -71.6972 101.58
545 24.4972 7.45289 1.4 20.5409 -85.0838 119.364
546 25.2472 7.45289 1.4 21.2414 -74.3255 -107.031
547 25.9972 7.45289 1.4 21.9452 -77.7835 -109.621
548 26.7472 7.45289 1.4 22.6519 -74.5403 -133.893
549 27.4972 7.45289 1.4 23.3614 -76.8828 -161.036
550 28.2472 7.45289 1.4 24.0733 -75.3855 140.01
551 28.9972 7.45289 1.4 24.7874 -77.7979 -126.126
552 29.7472 7.45289 1.4 25.5037 -86.7046 -22.0137
553 30.4972 7.45289 1.4 26.2218 -89.4725 -149.699
554 -28.0028 8.20289 1.4 34.0307 -101.073 -117.692
555 -27.2528 8.20289 1.4 33.2957 -103.718 -157.059
556 -26.5028 8.20289 1.4 32.5615 -113.366 97.757
557 -25.7528 8.20289 1.4 31.8279 -81.1278 160.112
558 -25.0028 8.20289 1.4 31.0952 -124.582 -173.749
559 -24.2528 8.20289 1.4 30.3633 -132.588 102.402
560 -23.5028 8.20289 1.4 29.6323 -120.543 -4.98401
561 -22.7528 8.20289 1.4 28.9023 -108.838 31.1668
562 -22.0028 8.20289 1.4 28.1734 -123.511 -168.352
563 -21.2528 8.20289 1.4 27.4455 -122.977 113.985
564 -20.5028 8.20289 1.4 26.7189 -87.5714 86.9196
565 -19.7528 8.20289 1.4 25.9937 -86.8207 -151.937
566 -19.0028 8.20289 1.4 25.2698 -114.465 161.276
567 -18.2528 8.20289 1.4 24.5476 -95.6556 -156.898
568 -17.5028 8.20289 1.4 23.827 -98.0526 -173.595
569 -16.7528 8.20289 1.4 23.1084 -89.3697 147.56
570 -16.0028 8.20289 1.4 22.3918 -82.9462 39.9881
571 -15.2528 8.20289 1.4 21.6774 -91.0942 -114.574
572 -14.5028 8.20289 1.4 20.9655 -92.5763 69.4111
573 -13.7528 8.20289 1.4 20.2564 -80.2881 79.0938
574 -13.0028 8.20289 1.4 19.5504 -82.9028 -140.643
575 -12.2528 8.20289 1.4 18.8477 -76.8754 -48.643
576 -11.5028 8.20289 1.4 18.1488 -93.0728 -11.2429
577 -10.7528 8.20289 1.4 17.4542 -85.4869 175.669
578 -10.0028 8.20289 1.4 16.7644 -71.0805 66.4679
579 -9.25282 8.20289 1.4 16.0799 -79.5903 133.117
580 -8.50282 8.20289 1.4 15.4015 -68.1139 58.891
581 -7.75282 8.20289 1.4 14.7301 -66.9852 169.901
582 -7.00282 8.20289 1.4 14.0666 -75.4491 91.154
583 -6.25282 8.20289 1.4 13.4123 -77.041 169.31
584 -5.50282 8.20289 1.4 12.7685 -76.7881 -95.1333
585 -4.75282 8.20289 1.4 12.1368 -67.628 -27.6567
586 -4.00282 8.20289 1.4 11.5194 -82.9571 -116.053
587 -3.25282 8.20289 1.4 10.9186 -69.1435 -59.8501
588 -2.50282 8.20289 1.4 10.3373 -64.5568 -119.881
589 -1.75282 8.20289 1.4 9.77901 -62.2435 143.196
590 -1.00282 8.20289 1.4 9.24787 -72.1809 -8.41163
591 -0.25282 8.20289 1.4 8.74884 -61.2013 -67.4137
592 0.49718 8.20289 1.4 8.28772 -58.8912 101.6
593 1.24718 8.20289 1.4 7.87117 -56.5081 -114.081
594 1.99718 8.20289 1.4 7.50663 -56.0142 -141.625
595 2.74718 8.20289 1.4 7.20199 -63.6137 159.427
596 3.49718 8.20289 1.4 6.96511 -82.3482 145.847
597 4.24718 8.20289 1.4 6.80307 -51.9406 -137.476
598 4.99718 8.20289 1.4 6.7213 -54.407 111.625
599 5.74718 8.20289 1.4 6.72273 -62.5208 -23.3791
600 6.49718 8.20289 1.4 6.80729 -66.7012 -79.3632
601 7.24718 8.20289 1.4 6.97196 -58.914 148.976
602 7.99718 8.20289 1.4 7.21127 -58.5961 -105.978
603 8.74718 8.20289 1.4 7.51808 -51.6026 81.1391
604 9.49718 8.20289 1.4 7.88452 -50.3269 81.5907
605 10.2472 8.20289 1.4 8.30269 -60.4821 65.7746
606 10.9972 8.20289 1.4 8.7652 -58.6721 168.956
607 11.7472 8.20289 1.4 9.26541 -58.8691 160.899
608 12.4972 8.20289 1.4 9.79755 -59.2939 63.3342
609 13.2472 8.20289 1.4 10.3567 -61.9699 -162.094
610 13.9972 8.20289 1.4 10.9387 -64.3394 -89.4796
611 14.7472 8.20289 1.4 11.5401 -66.8523 -49.79
612 15.4972 8.20289 1.4 12.1581 -85.9883 -167.311
613 16.2472 8.20289 1.4 12.7901 -90.6925 -151.391
614 16.9972 8.20289 1.4 13.4343 -82.553 51.9825
615 17.7472 8.20289 1.4 14.089 -94.0724 145.698
616 18.4972 8.20289 1.4 14.7528 -84.9282 -38.2967
617 19.2472 8.20289 1.4 15.4245 -82.1448 30.6806
618 19.9972 8.20289 1.4 16.103 -85.4801 -90.283
619 20.7472 8.20289 1.4 16.7877 -69.8398 -24.6634
620 21.4972 8.20289 1.4 17.4777 -65.1388 115.685
621 22.2472 8.20289 1.4 18.1725 -70.4887 -144.071
622 22.9972 8.20289 1.4 18.8715 -70.7252 -69.743
623 23.7472 8.20289 1.4 19.5743 -79.1696 67.3307
624 24.4972 8.20289 1.4 20.2805 -71.0795 -172.745
625 25.2472 8.20289 1.4 20.9897 -72.7665 45.7493
626 25.9972 8.20289 1.4 21.7016 -70.2318 57.6397
627 26.7472 8.20289 1.4 22.4161 -76.5106 13.5301
628 27.4972 8.20289 1.4 23.1328 -79.7404 116.709
629 28.2472 8.20289 1.4 23.8515 -92.08 167.486
630 28.9972 8.20289 1.4 24.5721 -83.8419 152.191
631 29.7472 8.20289 1.4 25.2944 -82.95 -87.0309
632 30.4972 8.20289 1.4 26.0183 -83.8529 40.1524
633 -28.0028 8.95289 1.4 33.8907 -81.7014 -132.537
634 -27.2528 8.95289 1.4 33.1527 -84.7403 79.8756
635 -26.5028 8.95289 1.4 32.4152 -93.6035 -147.606
636 -25.7528 8.95289 1.4 31.6783 -100.804 -51.0973
637 -25.0028 8.95289 1.4 30.942 -87.9558 50.5971
638 -24.2528 8.95289 1.4 30.2064 -98.0685 -135.127
639 -23.5028 8.95289 1.4 29.4715 -126.502 133.548
640 -22.7528 8.95289 1.4 28.7374 -124.59 -28.4312
641 -22.0028 8.95289 1.4 28.0042 -111.818 -133.028
642 -21.2528 8.95289 1.4 27.2718 -109.338 -41.2675
643 -20.5028 8.95289 1.4 26.5405 -100.82 -173.792
644 -19.7528 8.95289 1.4 25.8102 -106.084 -149.842
645 -19.0028 8.95289 1.4 25.0811 -85.0485 97.8315
646 -18.2528 8.95289 1.4 24.3532 -105.108 -41.0915
647 -17.5028 8.95289 1.4 23.6267 -116.414 10.2461
648 -16.7528 8.95289 1.4 22.9018 -77.633 69.9425
649 -16.0028 8.95289 1.4 22.1785 -85.1951 -173.104
650 -15.2528 8.95289 1.4 21.4571 -79.9872 -74.3073
651 -14.5028 8.95289 1.4 20.7376 -89.4879 122.392
652 -13.7528 8.95289 1.4 20.0204 -87.1359 -101.61
653 -13.0028 8.95289 1.4 19.3058 -87.8316 111.117
654 -12.2528 8.95289 1.4 18.5939 -100.514 -34.3935
655 -11.5028 8.95289 1.4 17.8851 -83.4978 -39.4082
656 -10.7528 8.95289 1.4 17.1798 -93.2989 11.2724
657 -10.0028 8.95289 1.4 16.4784 -76.8017 170.241
658 -9.25282 8.95289 1.4 15.7816 -74.8527 -54.6554
659 -8.50282 8.95289 1.4 15.0898 -75.2066 176.057
660 -7.75282 8.95289 1.4 14.4039 -73.388 -20.9852
661 -7.00282 8.95289 1.4 13.7246 -70.1468 -18.9366
662 -6.25282 8.95289 1.4 13.0531 -74.8616 154.193
663 -5.50282 8.95289 1.4 12.3907 -81.1373 -151.778
664 -4.75282 8.95289 1.4 11.7387 -71.6443 54.3957
665 -4.00282 8.95289 1.4 11.0992 -67.7082 157.772
666 -3.25282 8.95289 1.4 10.4743 -74.4483 112.483
667 -2.50282 8.95289 1.4 9.86687 -68.5485 -104.069
668 -1.75282 8.95289 1.4 9.28031 -64.4045 159.398
669 -1.00282 8.95289 1.4 8.71885 -63.0882 70.2673
670 -0.25282 8.95289 1.4 8.18764 -76.7235 -5.58846
671 0.49718 8.95289 1.4 7.69295 -56.4888 76.2111
672 1.24718 8.95289 1.4 7.24228 -56.335 -65.9371
673 1.99718 8.95289 1.4 6.84432 -64.4171 60.2342
674 2.74718 8.95289 1.4 6.50875 -60.0876 43.2778
675 3.49718 8.95289 1.4 6.24563 -65.8477 54.6505
676 4.24718 8.95289 1.4 6.06441 -54.5614 168.26
677 4.99718 8.95289 1.4 5.97253 -58.9108 -173.358
678 5.74718 8.95289 1.4 5.97413 -58.5105 46.4617
679 6.49718 8.95289 1.4 6.06913 -70.4662 -45.5401
680 7.24718 8.95289 1.4 6.25328 -53.2042 -177.423
681 7.99718 8.95289 1.4 6.51902 -57.7634 153.67
682 8.74718 8.95289 1.4 6.85687 -58.2028 -68.2653
683 9.49718 8.95289 1.4 7.25677 -58.859 157.308
684 10.2472 8.95289 1.4 7.70908 -57.8882 35.949
685 10.9972 8.95289 1.4 8.20512 -55.7656 36.6219
686 11.7472 8.95289 1.4 8.73745 -58.1342 -63.3163
687 12.4972 8.95289 1.4 9.29985 -69.5139 73.6903
688 13.2472 8.95289 1.4 9.88718 -70.9885 123.944
689 13.9972 8.95289 1.4 10.4953 -68.5131 149.558
690 14.7472 8.95289 1.4 11.1207 -75.1344 -154.956
691 15.4972 8.95289 1.4 11.7607 -93.4241 25.7384
692 16.2472 8.95289 1.4 12.413 -78.1702 177.967
693 16.9972 8.95289 1.4 13.0758 -76.0804 12.4793
694 17.7472 8.95289 1.4 13.7476 -88.8318 90.8174
695 18.4972 8.95289 1.4 14.4271 -88.1617 -64.7193
696 19.2472 8.95289 1.4 15.1132 -78.5627 133.629
697 19.9972 8.95289 1.4 15.8052 -69.4543 -158.868
698 20.7472 8.95289 1.4 16.5022 -64.2615 -9.45127
699 21.4972 8.95289 1.4 17.2037 -66.3923 97.8038
700 22.2472 8.95289 1.4 17.9091 -70.5004 -153.884
701 22.9972 8.95289 1.4 18.618 -71.3592 -147.575
702 23.7472 8.95289 1.4 19.33 -76.1348 -132.735
703 24.4972 8.95289 1.4 20.0448 -73.6459 -79.7533
704 25.2472 8.95289 1.4 20.762 -69.6063 -88.2841
705 25.9972 8.95289 1.4 21.4815 -82.2441 -132.547
706 26.7472 8.95289 1.4 22.203 -80.0769 -9.83524
707 27.4972 8.95289 1.4 22.9264 -85.0281 -36.5562
708 28.2472 8.95289 1.4 23.6514 -82.1604 -4.4481
709 28.9972 8.95289 1.4 24.3779 -76.7446 -49.2017
710 29.7472 8.95289 1.4 25.1058 -91.5974 -154.69
711 30.4972 8.95289 1.4 25.835 -90.8039 20.6441
712 -28.0028 9.70289 1.4 33.7669 -86.3784 -150.131
713 -27.2528 9.70289 1.4 33.026 -82.8177 -118.132
714 -26.5028 9.70289 1.4 32.2857 -88.1979 -164.742
715 -25.7528 9.70289 1.4 31.5457 -91.4984 25.6511
716 -25.0028 9.70289 1.4 30.8063 -95.0659 -4.88991
717 -24.2528 9.70289 1.4 30.0674 -92.3475 -145.749
718 -23.5028 9.70289 1.4 29.329 -98.7171 -157.802
719 -22.7528 9.70289 1.4 28.5912 -93.2009 -178.001
720 -22.0028 9.70289 1.4 27.8541 -113.16 -178.281
721 -21.2528 9.70289 1.4 27.1178 -96.6697 -16.8198
722 -20.5028 9.70289 1.4 26.3821 -85.4465 39.5224
723 -19.7528 9.70289 1.4 25.6473 -96.5799 171.878
724 -19.0028 9.70289 1.4 24.9134 -99.795 -158.062
725 -18.2528 9.70289 1.4 24.1805 -93.6365 -72.3037
726 -17.5028 9.70289 1.4 23.4487 -101.868 160.4
727 -16.7528 9.70289 1.4 22.7181 -85.1171 3.76154
728 -16.0028 9.70289 1.4 21.9888 -79.1693 -158.128
729 -15.2528 9.70289 1.4 21.2609 -80.3425 -1.65126
730 -14.5028 9.70289 1.4 20.5346 -81.296 174.443
731 -13.7528 9.70289 1.4 19.8101 -81.9149 -149.989
732 -13.0028 9.70289 1.4 19.0875 -83.3711 -43.6602
733 -12.2528 9.70289 1.4 18.3671 -85.417 75.3964
734 -11.5028 9.70289 1.4 17.6492 -78.7127 127.004
735 -10.7528 9.70289 1.4 16.9341 -83.4828 113.752
736 -10.0028 9.70289 1.4 16.2222 -76.8997 -100.895
737 -9.25282 9.70289 1.4 15.5138 -75.7236 34.3406
738 -8.50282 9.70289 1.4 14.8095 -73.7112 -160.124
739 -7.75282 9.70289 1.4 14.11 -92.3922 -78.4684
740 -7.00282 9.70289 1.4 13.4159 -71.0845 -144.282
741 -6.25282 9.70289 1.4 12.7281 -71.8429 178.666
742 -5.50282 9.70289 1.4 12.0478 -78.745 2.93815
743 -4.75282 9.70289 1.4 11.3762 -71.4408 45.1565
744 -4.00282 9.70289 1.4 10.715 -70.1813 -142.573
745 -3.25282 9.70289 1.4 10.0663 -70.7382 -3.52423
746 -2.50282 9.70289 1.4 9.43267 -68.287 44.0148
747 -1.75282 9.70289 1.4 8.81728 -65.2189 51.5181
748 -1.00282 9.70289 1.4 8.22426 -61.103 40.1483
749 -0.25282 9.70289 1.4 7.65882 -62.1884 -60.1371
750 0.49718 9.70289 1.4 7.12753 -62.0665 -116.568
751 1.24718 9.70289 1.4 6.63858 -56.0622 -29.9435
752 1.99718 9.70289 1.4 6.20201 -55.608 134.965
753 2.74718 9.70289 1.4 5.82958 -54.1614 129.133
754 3.49718 9.70289 1.4 5.53427 -70.2714 63.4103
755 4.24718 9.70289 1.4 5.3289 -57.1998 156.236
756 4.99718 9.70289 1.4 5.22411 -57.2268 -128.427
757 5.74718 9.70289 1.4 5.22594 -55.9433 117.805
758 6.49718 9.70289 1.4 5.33428 -67.6234 -48.722
759 7.24718 9.70289 1.4 5.54289 -55.2916 126.265
760 7.99718 9.70289 1.4 5.84104 -54.3761 -21.854
761 8.74718 9.70289 1.4 6.21586 -51.3517 -13.4426
762 9.49718 9.70289 1.4 6.6544 -50.4172 -159.772
763 10.2472 9.70289 1.4 7.14493 -55.5507 -63.3022
764 10.9972 9.70289 1.4 7.67751 -55.7881 -161.505
765 11.7472 9.70289 1.4 8.24399 -60.1514 -34.6097
766 12.4972 9.70289 1.4 8.83784 -69.5477 83.3801
767 13.2472 9.70289 1.4 9.45392 -65.1716 -21.2341
768 13.9972 9.70289 1.4 10.0881 -85.0499 9.69548
769 14.7472 9.70289 1.4 10.7373 -73.9739 -167.984
770 15.4972 9.70289 1.4 11.3989 -77.4346 61.1638
771 16.2472 9.70289 1.4 12.0707 -85.9731 -112.148
772 16.9972 9.70289 1.4 12.7514 -74.9907 144.191
773 17.7472 9.70289 1.4 13.4394 -96.0434 -131.653
774 18.4972 9.70289 1.4 14.1337 -76.4757 -44.094
775 19.2472 9.70289 1.4 14.8334 -65.9501 66.2776
776 19.9972 9.70289 1.4 15.5378 -64.3207 -133.333
777 20.7472 9.70289 1.4 16.2463 -66.4625 -36.8412
778 21.4972 9.70289 1.4 16.9584 -67.361 50.6827
779 22.2472 9.70289 1.4 17.6736 -68.0966 91.0017
780 22.9972 9.70289 1.4 18.3916 -68.5325 80.7442
781 23.7472 9.70289 1.4 19.112 -68.7891 98.1424
782 24.4972 9.70289 1.4 19.8346 -92.9328 58.4898
783 25.2472 9.70289 1.4 20.5592 -83.4684 136.868
784 25.9972 9.70289 1.4 21.2856 -81.9033 76.4194
785 26.7472 9.70289 1.4 22.0135 -89.5279 149.278
786 27.4972 9.70289 1.4 22.7429 -95.6612 48.3759
787 28.2472 9.70289 1.4 23.4736 -80.7576 125.417
788 28.9972 9.70289 1.4 24.2054 -83.2823 -169.354
789 29.7472 9.70289 1.4 24.9384 -72.9199 -172.714
790 30.4972 9.70289 1.4 25.6723 -78.0492 -4.39097
791 -28.0028 10.4529 1.4 33.6593 -89.6255 6.13546
792 -27.2528 10.4529 1.4 32.916 -77.5811 -109.295
793 -26.5028 10.4529 1.4 32.1731 -81.691 73.5615
794 -25.7528 10.4529 1.4 31.4305 -87.3776 45.8022
795 -25.0028 10.4529 1.4 30.6883 -114.838 132.712
796 -24.2528 10.4529 1.4 29.9465 -101.686 143.512
797 -23.5028 10.4529 1.4 29.2051 -99.9669 70.4565
798 -22.7528 10.4529 1.4 28.4641 -89.4382 -134.117
799 -22.0028 10.4529 1.4 27.7236 -91.2461 71.2488
800 -21.2528 10.4529 1.4 26.9837 -103.553 -20.6969
801 -20.5028 10.4529 1.4 26.2443 -89.1675 59.7105
802 -19.7528 10.4529 1.4 25.5055 -90.998 -47.5425
803 -19.0028 10.4529 1.4 24.7674 -92.2193 -99.315
804 -18.2528 10.4529 1.4 24.0301 -91.7502 49.6077
805 -17.5028 10.4529 1.4 23.2935 -94.9095 12.5303
806 -16.7528 10.4529 1.4 22.5579 -89.339 -72.5838
807 -16.0028 10.4529 1.4 21.8232 -86.4148 -119.819
808 -15.2528 10.4529 1.4 21.0896 -88.3713 76.1747
809 -14.5028 10.4529 1.4 20.3572 -83.8317 -175.414
810 -13.7528 10.4529 1.4 19.6261 -78.7915 0.552986
811 -13.0028 10.4529 1.4 18.8965 -80.6787 -160.936
812 -12.2528 10.4529 1.4 18.1686 -95.1988 118.659
813 -11.5028 10.4529 1.4 17.4425 -88.3598 -56.6819
814 -10.7528 10.4529 1.4 16.7186 -80.855 19.3913
815 -10.0028 10.4529 1.4 15.997 -78.1252 -20.5773
816 -9.25282 10.4529 1.4 15.2782 -84.6787 8.4951
817 -8.50282 10.4529 1.4 14.5625 -80.8388 6.78736
818 -7.75282 10.4529 1.4 13.8505 -73.0472 72.5517
819 -7.00282 10.4529 1.4 13.1427 -68.7298 -76.0762
820 -6.25282 10.4529 1.4 12.4399 -71.3359 124.791
821 -5.50282 10.4529 1.4 11.7428 -71.4964 94.6773
822 -4.75282 10.4529 1.4 11.0527 -77.5861 -94.1735
823 -4.00282 10.4529 1.4 10.371 -82.0104 69.5465
824 -3.25282 10.4529 1.4 9.6993 -65.0533 53.895
825 -2.50282 10.4529 1.4 9.03994 -69.2431 66.6618
826 -1.75282 10.4529 1.4 8.39581 -63.0525 -103.591
827 -1.00282 10.4529 1.4 7.77069 -68.7857 -134.703
828 -0.25282 10.4529 1.4 7.16957 -62.1243 -81.2696
829 0.49718 10.4529 1.4 6.59901 -56.0605 167.668
830 1.24718 10.4529 1.4 6.06762 -67.3996 45.5456
831 1.99718 10.4529 1.4 5.5866 -54.2583 148.47
832 2.74718 10.4529 1.4 5.17003 -50.0003 -51.9288
833 3.49718 10.4529 1.4 4.83459 -93.0556 -31.8541
834 4.24718 10.4529 1.4 4.59809 -54.8771 156.137
835 4.99718 10.4529 1.4 4.47622 -54.9183 -68.4851
836 5.74718 10.4529 1.4 4.47835 -62.0745 66.3479
837 6.49718 10.4529 1.4 4.60432 -48.8105 -14.4976
838 7.24718 10.4529 1.4 4.84447 -58.4372 33.9863
839 7.99718 10.4529 1.4 5.18295 -52.3299 147.024
840 8.74718 10.4529 1.4 5.60197 -49.8954 34.4562
841 9.49718 10.4529 1.4 6.08491 -54.0011 106.223
842 10.2472 10.4529 1.4 6.6178 -59.0436 102.728
843 10.9972 10.4529 1.4 7.18953 -57.6634 148.528
844 11.7472 10.4529 1.4 7.79157 -70.0216 -148.923
845 12.4972 10.4529 1.4 8.4174 -69.4236 178.252
846 13.2472 10.4529 1.4 9.0621 -76.8908 157.538
847 13.9972 10.4529 1.4 9.72192 -87.8635 139.652
848 14.7472 10.4529 1.4 10.394 -78.6432 171.227
849 15.4972 10.4529 1.4 11.0761 -69.7988 -19.4754
850 16.2472 10.4529 1.4 11.7664 -75.2982 46.0149
851 16.9972 10.4529 1.4 12.4636 -76.5239 67.9432
852 17.7472 10.4529 1.4 13.1667 -90.6467 135.546
853 18.4972 10.4529 1.4 13.8746 -67.2883 -72.5745
854 19.2472 10.4529 1.4 14.5868 -65.7321 129.564
855 19.9972 10.4529 1.4 15.3026 -66.6844 -157.564
856 20.7472 10.4529 1.4 16.0215 -67.1426 -80.6252
857 21.4972 10.4529 1.4 16.7431 -65.7777 -65.438
858 22.2472 10.4529 1.4 17.4671 -66.0666 -75.4458
859 22.9972 10.4529 1.4 18.1933 -66.3564 -98.1914
860 23.7472 10.4529 1.4 18.9213 -68.362 -141.481
861 24.4972 10.4529 1.4 19.6509 -79.6077 145.683
862 25.2472 10.4529 1.4 20.382 -88.9047 32.6053
863 25.9972 10.4529 1.4 21.1145 -70.5643 -152.958
864 26.7472 10.4529 1.4 21.8481 -71.4914 74.5569
865 27.4972 10.4529 1.4 22.5828 -80.8375 130.043
866 28.2472 10.4529 1.4 23.3185 -82.3888 -122.897
867 28.9972 10.4529 1.4 24.0551 -74.3306 -51.5875
868 29.7472 10.4529 1.4 24.7925 -78.0321 52.8512
869 30.4972 10.4529 1.4 25.5306 -85.4392 -33.3343
870 -28.0028 11.2029 1.4 33.5681 -99.3151 76.9354
871 -27.2528 11.2029 1.4 32.8228 -250 0
872 -26.5028 11.2029 1.4 32.0777 -91.7018 -7.98066
873 -25.7528 11.2029 1.4 31.3329 -83.4677 71.9084
874 -25.0028 11.2029 1.4 30.5883 -250 0
875 -24.2528 11.2029 1.4 29.844 -101.46 -47.4552
876 -23.5028 11.2029 1.4 29.0999 -101.535 -20.9132
877 -22.7528 11.2029 1.4 28.3562 -85.5138 -35.3606
878 -22.0028 11.2029 1.4 27.6128 -84.6083 119.703
879 -21.2528 11.2029 1.4 26.8698 -96.4435 -153.388
880 -20.5028 11.2029 1.4 26.1272 -92.3698 -111.183
881 -19.7528 11.2029 1.4 25.3851 -89.9139 -73.4609
882 -19.0028 11.2029 1.4 24.6434 -94.6304 30.8248
883 -18.2528 11.2029 1.4 23.9022 -77.6905 -51.767
884 -17.5028 11.2029 1.4 23.1616 -107.023 -73.4757
885 -16.7528 11.2029 1.4 22.4216 -82.6449 -18.1358
886 -16.0028 11.2029 1.4 21.6823 -84.9069 -76.8044
887 -15.2528 11.2029 1.4 20.9438 -84.2385 110.668
888 -14.5028 11.2029 1.4 20.2061 -77.736 -149.634
889 -13.7528 11.2029 1.4 19.4693 -87.664 -58.6731
890 -13.0028 11.2029 1.4 18.7336 -69.449 -61.4264
891 -12.2528 11.2029 1.4 17.9991 -83.6137 60.8392
892 -11.5028 11.2029 1.4 17.2659 -89.0459 49.5781
893 -10.7528 11.2029 1.4 16.5342 -85.6975 -13.6356
894 -10.0028 11.2029 1.4 15.8043 -77.3948 57.1384
895 -9.25282 11.2029 1.4 15.0763 -78.697 -20.1625
896 -8.50282 11.2029 1.4 14.3505 -71.8326 45.4862
897 -7.75282 11.2029 1.4 13.6274 -81.6955 35.3506
898 -7.00282 11.2029 1.4 12.9074 -76.1905 64.8823
899 -6.25282 11.2029 1.4 12.191 -66.826 126.015
900 -5.50282 11.2029 1.4 11.4789 -69.228 -47.9112
901 -4.75282 11.2029 1.4 10.7719 -65.6336 -41.5895
902 -4.00282 11.2029 1.4 10.0711 -66.1391 -125.819
903 -3.25282 11.2029 1.4 9.37798 -65.0335 112.723
904 -2.50282 11.2029 1.4 8.69429 -69.5377 -52.3859
905 -1.75282 11.2029 1.4 8.02245 -81.827 -122.041
906 -1.00282 11.2029 1.4 7.36572 -56.777 -52.6038
907 -0.25282 11.2029 1.4 6.72852 -57.7595 6.98281
908 0.49718 11.2029 1.4 6.11695 -58.7112 37.3426
909 1.24718 11.2029 1.4 5.53951 -58.4847 -80.4454
910 1.99718 11.2029 1.4 5.00802 -53.9936 79.7027
911 2.74718 11.2029 1.4 4.53866 -50.5689 8.43268
912 3.49718 11.2029 1.4 4.15253 -52.2833 40.133
913 4.24718 11.2029 1.4 3.87461 -58.165 -157.597
914 4.99718 11.2029 1.4 3.72917 -47.7748 -95.9221
915 5.74718 11.2029 1.4 3.73173 -47.9705 -133.587
916 6.49718 11.2029 1.4 3.882 -52.3557 25.6369
917 7.24718 11.2029 1.4 4.16402 -52.646 -113.24
918 7.99718 11.2029 1.4 4.55337 -46.3423 -141.268
919 8.74718 11.2029 1.4 5.02516 -50.547 -49.2355
920 9.49718 11.2029 1.4 5.55845 -49.4237 -135.67
921 10.2472 11.2029 1.4 6.13722 -60.7713 25.2467
922 10.9972 11.2029 1.4 6.74978 -62.4874 -79.4798
923 11.7472 11.2029 1.4 7.38774 -60.3973 -166.165
924 12.4972 11.2029 1.4 8.04505 -63.7986 125.953
925 13.2472 11.2029 1.4 8.71733 -61.5525 -86.1581
926 13.9972 11.2029 1.4 9.40138 -66.2011 127.855
927 14.7472 11.2029 1.4 10.0948 -70.0379 32.4278
928 15.4972 11.2029 1.4 10.7958 -83.0902 170.574
929 16.2472 11.2029 1.4 11.503 -66.6604 -94.4609
930 16.9972 11.2029 1.4 12.2153 -65.9569 81.291
931 17.7472 11.2029 1.4 12.9318 -73.3395 117.994
932 18.4972 11.2029 1.4 13.6519 -67.9083 3.89968
933 19.2472 11.2029 1.4 14.3751 -67.2523 80.7537
934 19.9972 11.2029 1.4 15.101 -72.5416 72.9151
935 20.7472 11.2029 1.4 15.829 -68.6373 113.458
936 21.4972 11.2029 1.4 16.559 -68.0936 93.3617
937 22.2472 11.2029 1.4 17.2908 -69.4899 61.1329
938 22.9972 11.2029 1.4 18.024 -69.5626 -12.8541
939 23.7472 11.2029 1.4 18.7586 -70.4573 -125.877
940 24.4972 11.2029 1.4 19.4943 -76.1666 142.674
941 25.2472 11.2029 1.4 20.2311 -77.2774 79.56
942 25.9972 11.2029 1.4 20.9688 -78.7154 -7.85813
943 26.7472 11.2029 1.4 21.7074 -69.2853 18.4399
944 27.4972 11.2029 1.4 22.4467 -75.608 -61.5224
945 28.2472 11.2029 1.4 23.1867 -69.4324 -37.8296
946 28.9972 11.2029 1.4 23.9274 -83.2031 -150.592
947 29.7472 11.2029 1.4 24.6685 -71.9069 -124.498
948 30.4972 11.2029 1.4 25.4103 -78.0186 79.3714
949 -28.0028 11.9529 1.4 33.4934 -83.6366 110.479
950 -27.2528 11.9529 1.4 32.7465 -80.233 10.0114
951 -26.5028 11.9529 1.4 31.9996 -84.8323 103.568
952 -25.7528 11.9529 1.4 31.2529 -85.92 150.486
953 -25.0028 11.9529 1.4 30.5064 -82.781 -20.0232
954 -24.2528 11.9529 1.4 29.76 -78.9585 13.7628
955 -23.5028 11.9529 1.4 29.0138 -79.8586 -139.047
956 -22.7528 11.9529 1.4 28.2678 -86.1204 -124.921
957 -22.0028 11.9529 1.4 27.5221 -80.2026 80.8187
958 -21.2528 11.9529 1.4 26.7765 -83.9382 62.7821
959 -20.5028 11.9529 1.4 26.0313 -80.9743 -38.1568
960 -19.7528 11.9529 1.4 25.2863 -77.8209 -86.356
961 -19.0028 11.9529 1.4 24.5416 -71.7465 164.973
962 -18.2528 11.9529 1.4 23.7973 -77.2904 27.304
963 -17.5028 11.9529 1.4 23.0533 -75.4362 -177.177
964 -16.7528 11.9529 1.4 22.3097 -74.0798 131.272
965 -16.0028 11.9529 1.4 21.5666 -79.2604 53.3104
966 -15.2528 11.9529 1.4 20.8239 -67.7141 -139.557
967 -14.5028 11.9529 1.4 20.0818 -79.5658 -48.0579
968 -13.7528 11.9529 1.4 19.3404 -74.244 176.385
969 -13.0028 11.9529 1.4 18.5996 -64.8513 -66.2072
970 -12.2528 11.9529 1.4 17.8595 -95.5995 154.058
971 -11.5028 11.9529 1.4 17.1204 -73.5229 -128.689
972 -10.7528 11.9529 1.4 16.3822 -76.248 -147.545
973 -10.0028 11.9529 1.4 15.6451 -68.3405 164.087
974 -9.25282 11.9529 1.4 14.9094 -75.7199 -143.716
975 -8.50282 11.9529 1.4 14.1751 -78.7178 64.834
976 -7.75282 11.9529 1.4 13.4425 -72.4494 -59.4186
977 -7.00282 11.9529 1.4 12.712 -66.9791 -69.3456
978 -6.25282 11.9529 1.4 11.984 -78.4989 -125.377
979 -5.50282 11.9529 1.4 11.2587 -63.0673 14.5605
980 -4.75282 11.9529 1.4 10.537 -61.7299 -129.425
981 -4.00282 11.9529 1.4 9.8195 -73.1305 24.8042
982 -3.25282 11.9529 1.4 9.10723 -59.8605 -125.639
983 -2.50282 11.9529 1.4 8.40154 -61.7947 -0.797223
984 -1.75282 11.9529 1.4 7.70422 -56.1517 31.5012
985 -1.00282 11.9529 1.4 7.01777 -63.4466 -53.1316
986 -0.25282 11.9529 1.4 6.34572 -65.1999 33.401
987 0.49718 11.9529 1.4 5.69318 -52.4509 155.829
988 1.24718 11.9529 1.4 5.06768 -58.1793 -101.466
989 1.99718 11.9529 1.4 4.48057 -51.4516 -174.944
990 2.74718 11.9529 1.4 3.949 -48.3177 -70.6581
991 3.49718 11.9529 1.4 3.49839 -50.4139 176.313
992 4.24718 11.9529 1.4 3.16351 -52.798 71.4084
993 4.99718 11.9529 1.4 2.98361 -45.0873 -86.8748
994 5.74718 11.9529 1.4 2.98681 -51.4551 163.459
995 6.49718 11.9529 1.4 3.17256 -51.0442 -51.0044
996 7.24718 11.9529 1.4 3.51201 -47.5928 60.3092
997 7.99718 11.9529 1.4 3.9659 -48.9253 -171.148
998 8.74718 11.9529 1.4 4.49972 -52.7521 97.1126
999 9.49718 11.9529 1.4 5.08838 -53.8806 -179.605
1000 10.2472 11.9529 1.4 5.71495 -57.4291 89.5854
1001 10.9972 11.9529 1.4 6.36826 -70.6802 -110.412
1002 11.7472 11.9529 1.4 7.04087 -63.7723 -127.15
1003 12.4972 11.9529 1.4 7.72774 -60.1645 -21.1381
1004 13.2472 11.9529 1.4 8.42538 -64.6852 -56.8573
1005 13.9972 11.9529 1.4 9.13133 -61.7812 164.839
1006 14.7472 11.9529 1.4 9.8438 -69.9104 -126.738
1007 15.4972 11.9529 1.4 10.5615 -63.5277 162.252
1008 16.2472 11.9529 1.4 11.2833 -62.9374 23.0119
1009 16.9972 11.9529 1.4 12.0086 -66.3164 108.222
1010 17.7472 11.9529 1.4 12.7368 -63.855 -129.831
1011 18.4972 11.9529 1.4 13.4674 -63.1006 -38.3443
1012 19.2472 11.9529 1.4 14.2 -73.5468 -97.026
1013 19.9972 11.9529 1.4 14.9343 -71.3 -29.569
1014 20.7472 11.9529 1.4 15.6701 -71.4352 -89.7894
1015 21.4972 11.9529 1.4 16.4072 -66.6913 -146.392
1016 22.2472 11.9529 1.4 17.1454 -67.2716 138.265
1017 22.9972 11.9529 1.4 17.8846 -67.1338 44.4652
1018 23.7472 11.9529 1.4 18.6247 -79.2794 -88.2812
1019 24.4972 11.9529 1.4 19.3655 -81.2461 69.0409
1020 25.2472 11.9529 1.4 20.107 -69.4209 -23.7398
1021 25.9972 11.9529 1.4 20.8491 -73.696 33.2733
1022 26.7472 11.9529 1.4 21.5918 -72.1812 -90.9443
1023 27.4972 11.9529 1.4 22.335 -77.3571 -79.7743
1024 28.2472 11.9529 1.4 23.0785 -73.1005 149.016
1025 28.9972 11.9529 1.4 23.8225 -82.6177 144.887
1026 29.7472 11.9529 1.4 24.5669 -78.1434 84.3752
1027 30.4972 11.9529 1.4 25.3116 -73.654 134.497
1028 -28.0028 12.7029 1.4 33.4355 -92.2836 -112.191
1029 -27.2528 12.7029 1.4 32.6872 -84.5263 -61.9835
1030 -26.5028 12.7029 1.4 31.9389 -95.0745 -35.7765
1031 -25.7528 12.7029 1.4 31.1908 -99.0969 47.7786
1032 -25.0028 12.7029 1.4 30.4427 -80.9943 19.3064
1033 -24.2528 12.7029 1.4 29.6947 -84.4472 101.477
1034 -23.5028 12.7029 1.4 28.9469 -75.6343 -120.512
1035 -22.7528 12.7029 1.4 28.1991 -73.8097 -143.814
1036 -22.0028 12.7029 1.4 27.4515 -86.1131 158.142
1037 -21.2528 12.7029 1.4 26.704 -82.7887 91.2529
1038 -20.5028 12.7029 1.4 25.9566 -75.1998 -21.1694
1039 -19.7528 12.7029 1.4 25.2095 -78.9889 -66.5572
1040 -19.0028 12.7029 1.4 24.4624 -73.957 -110.386
1041 -18.2528 12.7029 1.4 23.7156 -74.8031 144.681
1042 -17.5028 12.7029 1.4 22.969 -76.4129 171.042
1043 -16.7528 12.7029 1.4 22.2226 -69.5184 -59.3926
1044 -16.0028 12.7029 1.4 21.4764 -78.3703 -106.556
1045 -15.2528 12.7029 1.4 20.7306 -74.9849 77.111
1046 -14.5028 12.7029 1.4 19.985 -73.9866 -107.867
1047 -13.7528 12.7029 1.4 19.2398 -67.8561 89.5957
1048 -13.0028 12.7029 1.4 18.495 -85.9516 -178.108
1049 -12.2528 12.7029 1.4 17.7506 -67.7512 40.4562
1050 -11.5028 12.7029 1.4 17.0067 -69.9308 -126.836
1051 -10.7528 12.7029 1.4 16.2633 -71.3005 -38.1659
1052 -10.0028 12.7029 1.4 15.5206 -82.4564 -12.1369
1053 -9.25282 12.7029 1.4 14.7787 -78.176 31.3933
1054 -8.50282 12.7029 1.4 14.0376 -71.1104 42.4722
1055 -7.75282 12.7029 1.4 13.2975 -73.8717 18.3215
1056 -7.00282 12.7029 1.4 12.5585 -66.9087 -161.843
1057 -6.25282 12.7029 1.4 11.821 -63.9434 7.39372
1058 -5.50282 12.7029 1.4 11.0851 -63.1645 149.577
1059 -4.75282 12.7029 1.4 10.3513 -63.0433 -78.9026
1060 -4.00282 12.7029 1.4 9.61992 -58.3281 74.4627
1061 -3.25282 12.7029 1.4 8.89168 -60.8094 145.471
1062 -2.50282 12.7029 1.4 8.16738 -62.039 157.171
1063 -1.75282 12.7029 1.4 7.44816 -60.4718 111.321
1064 -1.00282 12.7029 1.4 6.73567 -59.4026 35.7713
1065 -0.25282 12.7029 1.4 6.03228 -56.9605 -94.7243
1066 0.49718 12.7029 1.4 5.34158 -62.7332 -148.945
1067 1.24718 12.7029 1.4 4.66922 -52.8339 -17.3013
1068 1.99718 12.7029 1.4 4.02439 -54.2556 77.0119
1069 2.74718 12.7029 1.4 3.42269 -48.0333 37.57
1070 3.49718 12.7029 1.4 2.89118 -46.3702 175.734
1071 4.24718 12.7029 1.4 2.47548 -44.1125 -32.7923
1072 4.99718 12.7029 1.4 2.24101 -45.7896 -66.6745
1073 5.74718 12.7029 1.4 2.24527 -44.7314 -174.825
1074 6.49718 12.7029 1.4 2.48703 -43.278 -174.404
1075 7.24718 12.7029 1.4 2.90765 -43.8295 57.8983
1076 7.99718 12.7029 1.4 3.44217 -48.3306 -33.7304
1077 8.74718 12.7029 1.4 4.0457 -57.7251 18.9887
1078 9.49718 12.7029 1.4 4.69167 -59.3102 -71.386
1079 10.2472 12.7029 1.4 5.36478 -62.3654 156.313
1080 10.9972 12.7029 1.4 6.05599 -60.6679 143.952
1081 11.7472 12.7029 1.4 6.75974 -57.5141 -49.2785
1082 12.4972 12.7029 1.4 7.4725 -59.8493 52.7909
1083 13.2472 12.7029 1.4 8.19191 -62.9413 113.674
1084 13.9972 12.7029 1.4 8.91636 -67.4968 80.2996
1085 14.7472 12.7029 1.4 9.64471 -60.6334 -11.7418
1086 15.4972 12.7029 1.4 10.3762 -59.9463 -100.178
1087 16.2472 12.7029 1.4 11.1101 -64.4737 75.6094
1088 16.9972 12.7029 1.4 11.846 -74.3347 67.5304
1089 17.7472 12.7029 1.4 12.5836 -68.8049 -175.585
1090 18.4972 12.7029 1.4 13.3226 -67.2583 -148.248
1091 19.2472 12.7029 1.4 14.0627 -70.475 -134.227
1092 19.9972 12.7029 1.4 14.8039 -67.9297 114.798
1093 20.7472 12.7029 1.4 15.5458 -75.1535 92.7557
1094 21.4972 12.7029 1.4 16.2886 -74.1702 -47.8573
1095 22.2472 12.7029 1.4 17.0319 -77.1137 -103.867
1096 22.9972 12.7029 1.4 17.7758 -77.0873 -16.9651
1097 23.7472 12.7029 1.4 18.5203 -69.5054 -132.581
1098 24.4972 12.7029 1.4 19.2651 -73.8379 23.3656
1099 25.2472 12.7029 1.4 20.0103 -86.7623 -119.605
1100 25.9972 12.7029 1.4 20.7559 -79.8986 4.81431
1101 26.7472 12.7029 1.4 21.5018 -78.0208 -106.926
1102 27.4972 12.7029 1.4 22.2479 -74.281 -122.164
1103 28.2472 12.7029 1.4 22.9943 -72.7363 -89.2381
1104 28.9972 12.7029 1.4 23.741 -78.195 30.0423
1105 29.7472 12.7029 1.4 24.4878 -74.0616 -163.913
1106 30.4972 12.7029 1.4 25.2348 -80.719 -137.157
1107 -28.0028 13.4529 1.4 33.3943 -93.029 -93.6596
1108 -27.2528 13.4529 1.4 32.645 -81.3788 -163.954
1109 -26.5028 13.4529 1.4 31.8958 -93.4513 34.25
1110 -25.7528 13.4529 1.4 31.1466 -82.7102 158.102
1111 -25.0028 13.4529 1.4 30.3974 -250 0
1112 -24.2528 13.4529 1.4 29.6483 -84.4281 -50.1766
1113 -23.5028 13.4529 1.4 28.8992 -86.8971 2.40521
1114 -22.7528 13.4529 1.4 28.1502 -80.8061 135.044
1115 -22.0028 13.4529 1.4 27.4013 -83.0325 76.2876
1116 -21.2528 13.4529 1.4 26.6524 -81.2674 13.5589
1117 -20.5028 13.4529 1.4 25.9035 -71.8915 -7.23463
1118 -19.7528 13.4529 1.4 25.1548 -75.6633 -75.3799
1119 -19.0028 13.4529 1.4 24.4061 -72.8895 -62.7593
1120 -18.2528 13.4529 1.4 23.6575 -70.738 61.0058
1121 -17.5028 13.4529 1.4 22.9089 -73.5669 177.076
1122 -16.7528 13.4529 1.4 22.1605 -77.2845 33.4484
1123 -16.0028 13.4529 1.4 21.4122 -77.9378 -50.368
1124 -15.2528 13.4529 1.4 20.664 -70.9063 -163.094
1125 -14.5028 13.4529 1.4 19.916 -81.9831 -158.914
1126 -13.7528 13.4529 1.4 19.1681 -73.7899 148.487
1127 -13.0028 13.4529 1.4 18.4203 -71.6327 173.296
1128 -12.2528 13.4529 1.4 17.6728 -72.0702 -19.0642
1129 -11.5028 13.4529 1.4 16.9255 -73.7182 -38.5566
1130 -10.7528 13.4529 1.4 16.1784 -70.4751 -87.6422
1131 -10.0028 13.4529 1.4 15.4316 -66.4159 114.986
1132 -9.25282 13.4529 1.4 14.6852 -67.7048 -44.4497
1133 -8.50282 13.4529 1.4 13.9391 -64.8863 179.461
1134 -7.75282 13.4529 1.4 13.1935 -74.3741 -46.334
1135 -7.00282 13.4529 1.4 12.4484 -64.8572 -96.0781
1136 -6.25282 13.4529 1.4 11.7039 -71.7317 66.8484
1137 -5.50282 13.4529 1.4 10.9601 -60.1233 168.754
1138 -4.75282 13.4529 1.4 10.2173 -59.0835 -102.306
1139 -4.00282 13.4529 1.4 9.47565 -67.6328 -49.467
1140 -3.25282 13.4529 1.4 8.73539 -58.5825 -43.2391
1141 -2.50282 13.4529 1.4 7.99695 -66.4719 -104.24
1142 -1.75282 13.4529 1.4 7.26088 -61.671 167.417
1143 -1.00282 13.4529 1.4 6.52797 -59.822 -47.1634
1144 -0.25282 13.4529 1.4 5.79944 -66.2074 -12.8051
1145 0.49718 13.4529 1.4 5.07717 -78.4633 -124.823
1146 1.24718 13.4529 1.4 4.36426 -73.2389 -8.59953
1147 1.99718 13.4529 1.4 3.66618 -63.9925 7.41051
1148 2.74718 13.4529 1.4 2.99332 -48.2589 -116.344
1149 3.49718 13.4529 1.4 2.3673 -52.8156 -75.284
1150 4.24718 13.4529 1.4 1.83663 -47.8426 74.7105
1151 4.99718 13.4529 1.4 1.50576 -43.0277 -37.6625
1152 5.74718 13.4529 1.4 1.51209 -41.527 -179.426
1153 6.49718 13.4529 1.4 1.85217 -42.4032 -54.8907
1154 7.24718 13.4529 1.4 2.38739 -49.8952 -86.5301
1155 7.99718 13.4529 1.4 3.01558 -62.202 -162.482
1156 8.74718 13.4529 1.4 3.68956 -54.0641 102.457
1157 9.49718 13.4529 1.4 4.38828 -87.6644 -38.0712
1158 10.2472 13.4529 1.4 5.10158 -75.3113 -17.5397
1159 10.9972 13.4529 1.4 5.8241 -61.4128 -131.969
1160 11.7472 13.4529 1.4 6.55281 -61.8846 -140.754
1161 12.4972 13.4529 1.4 7.28584 -59.906 74.4448
1162 13.2472 13.4529 1.4 8.022 -59.4821 170.432
1163 13.9972 13.4529 1.4 8.76051 -62.0569 -111.92
1164 14.7472 13.4529 1.4 9.50083 -61.1929 -175.928
1165 15.4972 13.4529 1.4 10.2426 -61.4095 -98.8376
1166 16.2472 13.4529 1.4 10.9854 -66.3453 60.3794
1167 16.9972 13.4529 1.4 11.7292 -63.2029 36.6042
1168 17.7472 13.4529 1.4 12.4737 -71.4775 55.56
1169 18.4972 13.4529 1.4 13.2188 -64.4786 25.3765
1170 19.2472 13.4529 1.4 13.9644 -74.3922 -22.4774
1171 19.9972 13.4529 1.4 14.7105 -69.0882 -134.721
1172 20.7472 13.4529 1.4 15.457 -79.4862 135.104
1173 21.4972 13.4529 1.4 16.2038 -72.293 172.14
1174 22.2472 13.4529 1.4 16.9509 -68.0048 108.258
1175 22.9972 13.4529 1.4 17.6982 -68.7002 -17.7381
1176 23.7472 13.4529 1.4 18.4457 -66.1422 59.5517
1177 24.4972 13.4529 1.4 19.1935 -76.1951 -60.3019
1178 25.2472 13.4529 1.4 19.9414 -81.2457 -179.33
1179 25.9972 13.4529 1.4 20.6894 -72.8948 136.616
1180 26.7472 13.4529 1.4 21.4376 -84.4881 -168.441
1181 27.4972 13.4529 1.4 22.1859 -76.4895 88.6018
1182 28.2472 13.4529 1.4 22.9344 -75.7152 44.9536
1183 28.9972 13.4529 1.4 23.6829 -250 0
1184 29.7472 13.4529 1.4 24.4315 -87.3701 12.7302
1185 30.4972 13.4529 1.4 25.1802 -80.5603 92.5367
1186 -28.0028 14.2029 1.4 33.3698 -85.0641 154.304
1187 -27.2528 14.2029 1.4 32.62 -81.2573 -73.8881
1188 -26.5028 14.2029 1.4 31.8702 -82.7125 -90.1982
1189 -25.7528 14.2029 1.4 31.1204 -91.7947 53.3258
1190 -25.0028 14.2029 1.4 30.3706 -86.7569 15.3912
1191 -24.2528 14.2029 1.4 29.6208 -77.6025 -93.154
1192 -23.5028 14.2029 1.4 28.871 -84.8193 51.8605
1193 -22.7528 14.2029 1.4 28.1213 -90.703 156.157
1194 -22.0028 14.2029 1.4 27.3715 -83.1337 19.8254
1195 -21.2528 14.2029 1.4 26.6218 -74.9684 -82.3079
1196 -20.5028 14.2029 1.4 25.872 -76.1899 98.2918
1197 -19.7528 14.2029 1.4 25.1223 -69.0678 176.683
1198 -19.0028 14.2029 1.4 24.3726 -83.2262 130.205
1199 -18.2528 14.2029 1.4 23.623 -75.3223 159.913
1200 -17.5028 14.2029 1.4 22.8733 -87.5208 85.8328
1201 -16.7528 14.2029 1.4 22.1237 -79.6318 46.9004
1202 -16.0028 14.2029 1.4 21.3741 -75.3376 45.7653
1203 -15.2528 14.2029 1.4 20.6245 -74.3311 -134.934
1204 -14.5028 14.2029 1.4 19.875 -70.8781 -151.406
1205 -13.7528 14.2029 1.4 19.1255 -85.5157 157.192
1206 -13.0028 14.2029 1.4 18.376 -75.2495 90.9168
1207 -12.2528 14.2029 1.4 17.6266 -75.1026 -59.1203
1208 -11.5028 14.2029 1.4 16.8773 -77.3043 -17.5449
1209 -10.7528 14.2029 1.4 16.128 -70.6299 -36.7241
1210 -10.0028 14.2029 1.4 15.3787 -83.2889 80.0997
1211 -9.25282 14.2029 1.4 14.6296 -66.9894 -118.476
1212 -8.50282 14.2029 1.4 13.8805 -71.5727 -40.6918
1213 -7.75282 14.2029 1.4 13.1316 -112.007 32.7378
1214 -7.00282 14.2029 1.4 12.3827 -63.5645 -158.44
1215 -6.25282 14.2029 1.4 11.634 -61.5887 28.2419
1216 -5.50282 14.2029 1.4 10.8855 -64.6261 65.2534
1217 -4.75282 14.2029 1.4 10.1373 -61.3226 124.145
1218 -4.00282 14.2029 1.4 9.38926 -62.0638 101.253
1219 -3.25282 14.2029 1.4 8.6416 -63.9538 2.22665
1220 -2.50282 14.2029 1.4 7.89439 -60.1101 -124.935
1221 -1.75282 14.2029 1.4 7.14776 -62.438 72.9694
1222 -1.00282 14.2029 1.4 6.40193 -72.4923 18.9382
1223 -0.25282 14.2029 1.4 5.65719 -68.2131 55.0122
1224 0.49718 14.2029 1.4 4.91405 -67.0792 130.443
1225 1.24718 14.2029 1.4 4.17336 -71.4953 151.078
1226 1.99718 14.2029 1.4 3.43673 -60.0125 100.165
1227 2.74718 14.2029 1.4 2.70743 -73.8306 -59.8052
1228 3.49718 14.2029 1.4 1.99356 -65.5353 157.799
1229 4.24718 14.2029 1.4 1.32038 -41.9832 172.376
1230 4.99718 14.2029 1.4 0.798445 -36.9989 -105.598
1231 5.74718 14.2029 1.4 0.810323 -34.5468 109.762
1232 6.49718 14.2029 1.4 1.34191 -43.364 107.393
1233 7.24718 14.2029 1.4 2.01738 -53.0601 -47.7543
1234 7.99718 14.2029 1.4 2.73202 -59.2033 98.4838
1235 8.74718 14.2029 1.4 3.46166 -67.7972 -59.1982
1236 9.49718 14.2029 1.4 4.19847 -57.8996 29.5223
1237 10.2472 14.2029 1.4 4.93926 -66.8362 -19.0035
1238 10.9972 14.2029 1.4 5.68246 -72.4719 -103.559
1239 11.7472 14.2029 1.4 6.42725 -70.4788 -58.6328
1240 12.4972 14.2029 1.4 7.17312 -64.6036 -12.2658
1241 13.2472 14.2029 1.4 7.91977 -60.1296 143.434
1242 13.9972 14.2029 1.4 8.667 -62.7422 -28.6041
1243 14.7472 14.2029 1.4 9.41467 -69.4378 95.5486
1244 15.4972 14.2029 1.4 10.1627 -69.5652 19.7662
1245 16.2472 14.2029 1.4 10.911 -70.9519 38.1766
1246 16.9972 14.2029 1.4 11.6595 -62.6578 -73.7516
1247 17.7472 14.2029 1.4 12.4082 -71.8002 -143.398
1248 18.4972 14.2029 1.4 13.157 -63.3424 89.1862
1249 19.2472 14.2029 1.4 13.906 -65.8032 -51.291
1250 19.9972 14.2029 1.4 14.655 -74.2193 137.448
1251 20.7472 14.2029 1.4 15.4042 -70.9185 28.7617
1252 21.4972 14.2029 1.4 16.1534 -80.4783 -135.978
1253 22.2472 14.2029 1.4 16.9027 -77.1379 73.3206
1254 22.9972 14.2029 1.4 17.6521 -72.9251 -103.079
1255 23.7472 14.2029 1.4 18.4015 -71.8491 0.187132
1256 24.4972 14.2029 1.4 19.151 -84.9891 169.467
1257 25.2472 14.2029 1.4 19.9005 -92.9567 163.784
1258 25.9972 14.2029 1.4 20.65 -87.9044 102.767
1259 26.7472 14.2029 1.4 21.3996 -80.6687 15.5196
1260 27.4972 14.2029 1.4 22.1492 -91.2615 68.1842
1261 28.2472 14.2029 1.4 22.8988 -88.6463 -41.6006
1262 28.9972 14.2029 1.4 23.6484 -86.1154 55.5156
1263 29.7472 14.2029 1.4 24.3981 -94.136 74.1891
1264 30.4972 14.2029 1.4 25.1478 -98.177 -87.2241
1265 -28.0028 14.9529 1.4 33.3623 -83.6621 14.7406
1266 -27.2528 14.9529 1.4 32.6123 -84.7313 -152.385
1267 -26.5028 14.9529 1.4 31.8623 -83.0889 94.4508
1268 -25.7528 14.9529 1.4 31.1123 -83.827 9.75785
1269 -25.0028 14.9529 1.4 30.3623 -84.9042 129.33
1270 -24.2528 14.9529 1.4 29.6123 -91.2531 89.1332
1271 -23.5028 14.9529 1.4 28.8623 -80.6718 97.4695
1272 -22.7528 14.9529 1.4 28.1123 -78.8616 25.674
1273 -22.0028 14.9529 1.4 27.3623 -83.9242 84.4905
1274 -21.2528 14.9529 1.4 26.6123 -87.6469 125.845
1275 -20.5028 14.9529 1.4 25.8623 -107.753 165.296
1276 -19.7528 14.9529 1.4 25.1123 -98.0014 -86.5427
1277 -19.0028 14.9529 1.4 24.3623 -85.027 42.7302
1278 -18.2528 14.9529 1.4 23.6123 -87.022 -53.2481
1279 -17.5028 14.9529 1.4 22.8623 -88.9308 23.6515
1280 -16.7528 14.9529 1.4 22.1123 -97.0904 39.3961
1281 -16.0028 14.9529 1.4 21.3623 -94.8494 151.863
1282 -15.2528 14.9529 1.4 20.6123 -103.476 129.726
1283 -14.5028 14.9529 1.4 19.8623 -84.9938 -71.6298
1284 -13.7528 14.9529 1.4 19.1123 -97.9673 -162.629
1285 -13.0028 14.9529 1.4 18.3623 -78.582 16.5216
1286 -12.2528 14.9529 1.4 17.6123 -94.3282 126.746
1287 -11.5028 14.9529 1.4 16.8623 -79.2182 134.449
1288 -10.7528 14.9529 1.4 16.1123 -86.0042 -70.277
1289 -10.0028 14.9529 1.4 15.3623 -66.6623 134.214
1290 -9.25282 14.9529 1.4 14.6123 -60.09 -112.208
1291 -8.50282 14.9529 1.4 13.8623 -62.6397 -4.07947
1292 -7.75282 14.9529 1.4 13.1123 -65.5205 -82.1844
1293 -7.00282 14.9529 1.4 12.3623 -57.214 137.609
1294 -6.25282 14.9529 1.4 11.6123 -58.7662 139.934
1295 -5.50282 14.9529 1.4 10.8623 -55.6799 -123.773
1296 -4.75282 14.9529 1.4 10.1123 -53.2847 -89.7349
1297 -4.00282 14.9529 1.4 9.36234 -54.4684 -55.6358
1298 -3.25282 14.9529 1.4 8.61235 -47.8916 67.9259
1299 -2.50282 14.9529 1.4 7.86236 -54.8498 93.0325
1300 -1.75282 14.9529 1.4 7.11237 -50.0727 174.055
1301 -1.00282 14.9529 1.4 6.36238 -45.3062 -133.393
1302 -0.25282 14.9529 1.4 5.61239 -45.0308 -107.898
1303 0.49718 14.9529 1.4 4.86241 -47.4121 15.9547
1304 1.24718 14.9529 1.4 4.11244 -39.244 54.1732
1305 1.99718 14.9529 1.4 3.36248 -39.441 68.0118
1306 2.74718 14.9529 1.4 2.61254 -49.0191 -164.985
1307 3.49718 14.9529 1.4 1.86266 -44.3475 -68.706
1308 4.24718 14.9529 1.4 1.11293 -30.4762 -41.106
1309 4.99718 14.9529 1.4 0.364298 -24.9983 -11.9872
1310 5.74718 14.9529 1.4 0.389642 -27.358 -63.6317
1311 6.49718 14.9529 1.4 1.13839 -36.1468 -137.752
1312 7.24718 14.9529 1.4 1.88813 -39.5499 143.503
1313 7.99718 14.9529 1.4 2.63802 -53.1103 -38.5947
1314 8.74718 14.9529 1.4 3.38796 -39.4656 -30.1224
1315 9.49718 14.9529 1.4 4.13792 -42.2748 -42.5056
1316 10.2472 14.9529 1.4 4.88789 -53.7946 -136.802
1317 10.9972 14.9529 1.4 5.63787 -46.4932 157.399
1318 11.7472 14.9529 1.4 6.38785 -49.8284 112.261
1319 12.4972 14.9529 1.4 7.13784 -51.2089 5.23865
1320 13.2472 14.9529 1.4 7.88783 -50.8944 7.01322
1321 13.9972 14.9529 1.4 8.63782 -56.6119 -72.5226
1322 14.7472 14.9529 1.4 9.38782 -57.374 -178.496
1323 15.4972 14.9529 1.4 10.1378 -58.3165 115.532
1324 16.2472 14.9529 1.4 10.8878 -57.0958 92.6422
1325 16.9972 14.9529 1.4 11.6378 -59.0454 53.1628
1326 17.7472 14.9529 1.4 12.3878 -58.5502 -49.8672
1327 18.4972 14.9529 1.4 13.1378 -59.3773 -168.026
1328 19.2472 14.9529 1.4 13.8878 -64.4794 -14.5748
1329 19.9972 14.9529 1.4 14.6378 -59.3473 130.537
1330 20.7472 14.9529 1.4 15.3878 -73.2595 -146.159
1331 21.4972 14.9529 1.4 16.1378 -110.426 130.828
1332 22.2472 14.9529 1.4 16.8878 -80.2846 106.335
1333 22.9972 14.9529 1.4 17.6378 -75.2143 -117.898
1334 23.7472 14.9529 1.4 18.3878 -87.1231 -149.757
1335 24.4972 14.9529 1.4 19.1378 -113.137 161.759
1336 25.2472 14.9529 1.4 19.8878 -82.63 158.285
1337 25.9972 14.9529 1.4 20.6378 -79.7862 -28.8218
1338 26.7472 14.9529 1.4 21.3878 -96.7676 119.283
1339 27.4972 14.9529 1.4 22.1378 -89.7306 140.195
1340 28.2472 14.9529 1.4 22.8878 -95.8898 174.302
1341 28.9972 14.9529 1.4 23.6378 -92.5037 -3.34479
1342 29.7472 14.9529 1.4 24.3878 -98.4357 -51.0302
1343 30.4972 14.9529 1.4 25.1378 -100.57 87.695
1344 -28.0028 15.7029 1.4 33.3716 -86.5218 168.775
1345 -27.2528 15.7029 1.4 32.6218 -84.4884 61.2011
1346 -26.5028 15.7029 1.4 31.872 -83.1369 -150.101
1347 -25.7528 15.7029 1.4 31.1223 -91.1987 -63.9468
1348 -25.0028 15.7029 1.4 30.3725 -80.0819 -144.707
1349 -24.2528 15.7029 1.4 29.6228 -91.677 -110.681
1350 -23.5028 15.7029 1.4 28.873 -95.6061 179.051
1351 -22.7528 15.7029 1.4 28.1233 -85.9467 135.296
1352 -22.0028 15.7029 1.4 27.3736 -90.0591 129.755
1353 -21.2528 15.7029 1.4 26.6239 -85.1489 0.605716
1354 -20.5028 15.7029 1.4 25.8743 -92.0525 12.5091
1355 -19.7528 15.7029 1.4 25.1246 -87.039 159.255
1356 -19.0028 15.7029 1.4 24.375 -101.315 173.634
1357 -18.2528 15.7029 1.4 23.6254 -85.1679 170.769
1358 -17.5028 15.7029 1.4 22.8759 -94.9992 174.988
1359 -16.7528 15.7029 1.4 22.1263 -83.7001 92.7857
1360 -16.0028 15.7029 1.4 21.3768 -87.3399 -51.8482
1361 -15.2528 15.7029 1.4 20.6273 -87.535 -164.798
1362 -14.5028 15.7029 1.4 19.8779 -100.791 34.9712
1363 -13.7528 15.7029 1.4 19.1285 -81.6426 56.1042
1364 -13.0028 15.7029 1.4 18.3792 -82.2246 124.029
1365 -12.2528 15.7029 1.4 17.6299 -89.3652 -1.73489
1366 -11.5028 15.7029 1.4 16.8807 -77.1199 -149.235
1367 -10.7528 15.7029 1.4 16.1315 -72.3945 -55.5199
1368 -10.0028 15.7029 1.4 15.3825 -69.6775 111.397
1369 -9.25282 15.7029 1.4 14.6335 -60.9885 171.924
1370 -8.50282 15.7029 1.4 13.8847 -64.0875 -134.28
1371 -7.75282 15.7029 1.4 13.1359 -60.1928 -106.91
1372 -7.00282 15.7029 1.4 12.3874 -49.5855 8.15944
1373 -6.25282 15.7029 1.4 11.639 -50.8234 10.1058
1374 -5.50282 15.7029 1.4 10.8908 -55.9347 32.2947
1375 -4.75282 15.7029 1.4 10.143 -57.9242 152.327
1376 -4.00282 15.7029 1.4 9.3954 -53.5113 171.56
1377 -3.25282 15.7029 1.4 8.64828 -53.2006 -65.3014
1378 -2.50282 15.7029 1.4 7.9017 -53.6384 -27.0138
1379 -1.75282 15.7029 1.4 7.15583 -56.783 107.413
1380 -1.00282 15.7029 1.4 6.41093 -47.7142 115.622
1381 -0.25282 15.7029 1.4 5.66738 -47.75 121.503
1382 0.49718 15.7029 1.4 4.92578 -48.3541 170.854
1383 1.24718 15.7029 1.4 4.18717 -51.6908 -155.227
1384 1.99718 15.7029 1.4 3.45347 -45.1387 -87.4404
1385 2.74718 15.7029 1.4 2.72866 -44.9858 140.835
1386 3.49718 15.7029 1.4 2.0223 -37.5082 119.662
1387 4.24718 15.7029 1.4 1.36338 -43.2202 -74.4662
1388 4.99718 15.7029 1.4 0.867704 -33.2636 -27.2461
1389 5.74718 15.7029 1.4 0.878646 -34.5758 -29.9911
1390 6.49718 15.7029 1.4 1.38424 -39.0795 -80.0915
1391 7.24718 15.7029 1.4 2.04578 -40.1905 54.854
1392 7.99718 15.7029 1.4 2.75306 -41.1491 101.255
1393 8.74718 15.7029 1.4 3.47828 -45.6082 172.477
1394 9.49718 15.7029 1.4 4.21219 -49.213 114.401
1395 10.2472 15.7029 1.4 4.95093 -59.7706 62.5915
1396 10.9972 15.7029 1.4 5.69261 -51.4315 9.33377
1397 11.7472 15.7029 1.4 6.43622 -56.2997 -51.4647
1398 12.4972 15.7029 1.4 7.18116 -51.7728 -153.147
1399 13.2472 15.7029 1.4 7.92705 -49.0701 -179.35
1400 13.9972 15.7029 1.4 8.67365 -59.0679 82.3797
1401 14.7472 15.7029 1.4 9.42079 -56.7103 45.9339
1402 15.4972 15.7029 1.4 10.1684 -53.1872 -19.4773
1403 16.2472 15.7029 1.4 10.9163 -52.3946 -46.0725
1404 16.9972 15.7029 1.4 11.6644 -59.671 -34.1977
1405 17.7472 15.7029 1.4 12.4128 -62.2234 174.89
1406 18.4972 15.7029 1.4 13.1614 -58.5868 130.492
1407 19.2472 15.7029 1.4 13.9101 -61.3928 22.0369
1408 19.9972 15.7029 1.4 14.659 -59.9699 32.9855
1409 20.7472 15.7029 1.4 15.4079 -58.8862 -9.54637
1410 21.4972 15.7029 1.4 16.157 -77.1356 -142.021
1411 22.2472 15.7029 1.4 16.9061 -88.4417 165.078
1412 22.9972 15.7029 1.4 17.6554 -81.5287 -9.43221
1413 23.7472 15.7029 1.4 18.4046 -90.677 -149.778
1414 24.4972 15.7029 1.4 19.154 -90.5648 96.5175
1415 25.2472 15.7029 1.4 19.9034 -86.0342 -163.039
1416 25.9972 15.7029 1.4 20.6528 -91.2221 -28.9953
1417 26.7472 15.7029 1.4 21.4023 -100.307 -136.217
1418 27.4972 15.7029 1.4 22.1518 -90.8722 118.655
1419 28.2472 15.7029 1.4 22.9013 -98.2533 -163.174
1420 28.9972 15.7029 1.4 23.6509 -91.4428 160.748
1421 29.7472 15.7029 1.4 24.4005 -94.6852 -71.1231
1422 30.4972 15.7029 1.4 25.1501 -88.6003 167.887
1423 -28.0028 16.4529 1.4 33.3977 -77.504 -84.4239
1424 -27.2528 16.4529 1.4 32.6485 -81.3969 -164.339
1425 -26.5028 16.4529 1.4 31.8994 -75.6538 -63.9407
1426 -25.7528 16.4529 1.4 31.1503 -82.802 59.7236
1427 -25.0028 16.4529 1.4 30.4012 -86.5734 130.528
1428 -24.2528 16.4529 1.4 29.6522 -250 0
1429 -23.5028 16.4529 1.4 28.9032 -80.5171 -112.265
1430 -22.7528 16.4529 1.4 28.1543 -110.39 -107.241
1431 -22.0028 16.4529 1.4 27.4055 -86.7612 5.91137
1432 -21.2528 16.4529 1.4 26.6567 -91.6107 141.742
1433 -20.5028 16.4529 1.4 25.908 -91.2039 -176.317
1434 -19.7528 16.4529 1.4 25.1593 -90.1383 -118.648
1435 -19.0028 16.4529 1.4 24.4108 -85.1604 -107.447
1436 -18.2528 16.4529 1.4 23.6623 -106.439 -144.48
1437 -17.5028 16.4529 1.4 22.914 -86.2335 -130.861
1438 -16.7528 16.4529 1.4 22.1657 -87.4971 -8.0876
1439 -16.0028 16.4529 1.4 21.4176 -82.5267 -85.3077
1440 -15.2528 16.4529 1.4 20.6696 -85.8898 118.345
1441 -14.5028 16.4529 1.4 19.9218 -84.6471 -162.647
1442 -13.7528 16.4529 1.4 19.1741 -77.6366 167.84
1443 -13.0028 16.4529 1.4 18.4266 -75.4208 -59.9536
1444 -12.2528 16.4529 1.4 17.6793 -87.4456 107.03
1445 -11.5028 16.4529 1.4 16.9323 -77.4078 -10.0679
1446 -10.7528 16.4529 1.4 16.1855 -97.0992 163.982
1447 -10.0028 16.4529 1.4 15.4391 -59.6777 21.5489
1448 -9.25282 16.4529 1.4 14.693 -61.9449 40.4746
1449 -8.50282 16.4529 1.4 13.9474 -74.0789 95.0157
1450 -7.75282 16.4529 1.4 13.2022 -73.8653 135.47
1451 -7.00282 16.4529 1.4 12.4576 -54.8 169.205
1452 -6.25282 16.4529 1.4 11.7137 -55.7681 -169.443
1453 -5.50282 16.4529 1.4 10.9707 -68.7498 44.8839
1454 -4.75282 16.4529 1.4 10.2286 -57.6723 -18.3112
1455 -4.00282 16.4529 1.4 9.48782 -55.8593 -33.277
1456 -3.25282 16.4529 1.4 8.7486 -56.7369 19.7379
1457 -2.50282 16.4529 1.4 8.01137 -56.9134 -10.2738
1458 -1.75282 16.4529 1.4 7.27675 -53.6209 -9.73884
1459 -1.00282 16.4529 1.4 6.54563 -57.9808 -44.3708
1460 -0.25282 16.4529 1.4 5.81931 -64.2019 116.385
1461 0.49718 16.4529 1.4 5.09985 -49.01 10.3417
1462 1.24718 16.4529 1.4 4.39062 -45.302 -96.4994
1463 1.99718 16.4529 1.4 3.69752 -47.4177 -91.7599
1464 2.74718 16.4529 1.4 3.03163 -43.3994 -20.6192
1465 3.49718 16.4529 1.4 2.41555 -40.1453 -6.82791
1466 4.24718 16.4529 1.4 1.89842 -42.0316 154.658
1467 4.99718 16.4529 1.4 1.58054 -37.7315 21.5086
1468 5.74718 16.4529 1.4 1.58657 -38.5211 11.6113
1469 6.49718 16.4529 1.4 1.91346 -37.906 108.766
1470 7.24718 16.4529 1.4 2.43525 -43.8584 28.6584
1471 7.99718 16.4529 1.4 3.05361 -47.1787 -104.366
1472 8.74718 16.4529 1.4 3.72071 -46.9788 -165.524
1473 9.49718 16.4529 1.4 4.41449 -45.7879 -158.453
1474 10.2472 16.4529 1.4 5.12415 -48.7501 -71.9765
1475 10.9972 16.4529 1.4 5.84388 -60.8363 55.4196
1476 11.7472 16.4529 1.4 6.57039 -60.1411 -66.1317
1477 12.4972 16.4529 1.4 7.30166 -49.5791 -52.7491
1478 13.2472 16.4529 1.4 8.03637 -50.3976 -33.6047
1479 13.9972 16.4529 1.4 8.77368 -54.0196 -91.9673
1480 14.7472 16.4529 1.4 9.51297 -59.7313 -112.971
1481 15.4972 16.4529 1.4 10.2538 -57.8382 -173.379
1482 16.2472 16.4529 1.4 10.9959 -57.2309 102.188
1483 16.9972 16.4529 1.4 11.739 -57.3966 116.848
1484 17.7472 16.4529 1.4 12.4829 -59.9613 10.5483
1485 18.4972 16.4529 1.4 13.2275 -63.1117 -89.7033
1486 19.2472 16.4529 1.4 13.9727 -58.8611 -117.234
1487 19.9972 16.4529 1.4 14.7184 -58.6321 -153.443
1488 20.7472 16.4529 1.4 15.4645 -92.3405 -56.9868
1489 21.4972 16.4529 1.4 16.2109 -80.503 -10.4957
1490 22.2472 16.4529 1.4 16.9577 -85.7174 -30.7949
1491 22.9972 16.4529 1.4 17.7047 -89.3694 -174.121
1492 23.7472 16.4529 1.4 18.452 -101.35 125.437
1493 24.4972 16.4529 1.4 19.1995 -100.662 128.219
1494 25.2472 16.4529 1.4 19.9472 -106.751 19.6569
1495 25.9972 16.4529 1.4 20.695 -114.826 -175.294
1496 26.7472 16.4529 1.4 21.443 -87.274 -80.1063
1497 27.4972 16.4529 1.4 22.1911 -106.345 60.6024
1498 28.2472 16.4529 1.4 22.9394 -101.193 47.1481
1499 28.9972 16.4529 1.4 23.6878 -107.089 -62.289
1500 29.7472 16.4529 1.4 24.4362 -90.9151 -55.6285
1501 30.4972 16.4529 1.4 25.1848 -97.8714 56.964
1502 -28.0028 17.2029 1.4 33.4407 -90.1606 90.0365
1503 -27.2528 17.2029 1.4 32.6925 -78.9001 -174.165
1504 -26.5028 17.2029 1.4 31.9443 -79.2809 -30.5959
1505 -25.7528 17.2029 1.4 31.1963 -95.7651 34.0557
1506 -25.0028 17.2029 1.4 30.4484 -90.381 36.5517
1507 -24.2528 17.2029 1.4 29.7006 -102.458 78.8202
1508 -23.5028 17.2029 1.4 28.9528 -250 0
1509 -22.7528 17.2029 1.4 28.2053 -250 0
1510 -22.0028 17.2029 1.4 27.4578 -250 0
1511 -21.2528 17.2029 1.4 26.7105 -250 0
1512 -20.5028 17.2029 1.4 25.9633 -105.54 58.7385
1513 -19.7528 17.2029 1.4 25.2163 -84.5349 8.84458
1514 -19.0028 17.2029 1.4 24.4695 -97.2251 -28.5294
1515 -18.2528 17.2029 1.4 23.7229 -85.5826 6.80292
1516 -17.5028 17.2029 1.4 22.9765 -90.6034 -179.126
1517 -16.7528 17.2029 1.4 22.2304 -75.9021 94.1252
1518 -16.0028 17.2029 1.4 21.4845 -89.5203 40.6835
1519 -15.2528 17.2029 1.4 20.7389 -85.4586 -25.4181
1520 -14.5028 17.2029 1.4 19.9937 -83.3686 69.5956
1521 -13.7528 17.2029 1.4 19.2488 -84.1176 -152.33
1522 -13.0028 17.2029 1.4 18.5043 -91.2808 60.7495
1523 -12.2528 17.2029 1.4 17.7603 -76.935 120.064
1524 -11.5028 17.2029 1.4 17.0168 -67.8295 131.955
1525 -10.7528 17.2029 1.4 16.274 -65.9848 -140.233
1526 -10.0028 17.2029 1.4 15.5318 -60.7553 172.11
1527 -9.25282 17.2029 1.4 14.7904 -61.5049 159.366
1528 -8.50282 17.2029 1.4 14.0499 -64.4049 -135.319
1529 -7.75282 17.2029 1.4 13.3105 -73.8827 -87.7302
1530 -7.00282 17.2029 1.4 12.5723 -62.4396 -115.327
1531 -6.25282 17.2029 1.4 11.8356 -58.1596 -119.184
1532 -5.50282 17.2029 1.4 11.1007 -59.3447 178.502
1533 -4.75282 17.2029 1.4 10.368 -64.6121 -153.452
1534 -4.00282 17.2029 1.4 9.63789 -56.4198 144.897
1535 -3.25282 17.2029 1.4 8.91112 -53.3528 160.436
1536 -2.50282 17.2029 1.4 8.18854 -63.4761 -173.725
1537 -1.75282 17.2029 1.4 7.47137 -57.1006 -144.401
1538 -1.00282 17.2029 1.4 6.76132 -50.5867 104.44
1539 -0.25282 17.2029 1.4 6.0609 -51.3358 -6.14524
1540 0.49718 17.2029 1.4 5.37389 -45.8501 26.9874
1541 1.24718 17.2029 1.4 4.70614 -40.3195 114.253
1542 1.99718 17.2029 1.4 4.06717 -56.3224 35.513
1543 2.74718 17.2029 1.4 3.47289 -44.272 -147.063
1544 3.49718 17.2029 1.4 2.95044 -42.7255 -62.4003
1545 4.24718 17.2029 1.4 2.54444 -43.2434 66.7912
1546 4.99718 17.2029 1.4 2.31696 -42.7388 -29.2632
1547 5.74718 17.2029 1.4 2.32108 -37.5658 -13.8771
1548 6.49718 17.2029 1.4 2.55568 -49.2449 115.028
1549 7.24718 17.2029 1.4 2.96659 -49.1417 -67.185
1550 7.99718 17.2029 1.4 3.4921 -49.7328 152.245
1551 8.74718 17.2029 1.4 4.08826 -50.7058 -95.8971
1552 9.49718 17.2029 1.4 4.72842 -48.8276 69.4694
1553 10.2472 17.2029 1.4 5.39695 -53.8599 -84.6762
1554 10.9972 17.2029 1.4 6.0845 -47.8318 -87.7637
1555 11.7472 17.2029 1.4 6.7853 -50.5941 54.3757
1556 12.4972 17.2029 1.4 7.49562 -51.4569 125.467
1557 13.2472 17.2029 1.4 8.21301 -56.0051 110.834
1558 13.9972 17.2029 1.4 8.93575 -58.9263 27.8039
1559 14.7472 17.2029 1.4 9.66265 -59.9424 86.2048
1560 15.4972 17.2029 1.4 10.3928 -57.3258 148.956
1561 16.2472 17.2029 1.4 11.1256 -64.0081 155.556
1562 16.9972 17.2029 1.4 11.8606 -56.8038 155.924
1563 17.7472 17.2029 1.4 12.5973 -71.9693 97.8522
1564 18.4972 17.2029 1.4 13.3356 -63.4473 86.8219
1565 19.2472 17.2029 1.4 14.075 -60.1028 33.2559
1566 19.9972 17.2029 1.4 14.8155 -74.1423 82.0251
1567 20.7472 17.2029 1.4 15.557 -66.8637 -49.7287
1568 21.4972 17.2029 1.4 16.2992 -81.3766 -91.2583
1569 22.2472 17.2029 1.4 17.0421 -79.3831 175.661
1570 22.9972 17.2029 1.4 17.7856 -83.4578 83.7439
1571 23.7472 17.2029 1.4 18.5296 -91.4544 68.4591
1572 24.4972 17.2029 1.4 19.2741 -111.751 -9.78176
1573 25.2472 17.2029 1.4 20.019 -105.467 -79.9663
1574 25.9972 17.2029 1.4 20.7642 -104.562 -86.952
1575 26.7472 17.2029 1.4 21.5098 -103.055 -2.94838
1576 27.4972 17.2029 1.4 22.2557 -86.8857 112.39
1577 28.2472 17.2029 1.4 23.0019 -100.974 -74.674
1578 28.9972 17.2029 1.4 23.7483 -98.5218 -51.8194
1579 29.7472 17.2029 1.4 24.4949 -91.3776 -51.4651
1580 30.4972 17.2029 1.4 25.2417 -94.5172 -165.011
1581 -28.0028 17.9529 1.4 33.5003 -75.7545 70.7042
1582 -27.2528 17.9529 1.4 32.7535 -96.8764 -166.353
1583 -26.5028 17.9529 1.4 32.0068 -92.818 154.425
1584 -25.7528 17.9529 1.4 31.2603 -92.2419 134.475
1585 -25.0028 17.9529 1.4 30.5139 -99.6655 -44.8454
1586 -24.2528 17.9529 1.4 29.7677 -118.246 -108.331
1587 -23.5028 17.9529 1.4 29.0218 -82.7968 -177.852
1588 -22.7528 17.9529 1.4 28.276 -90.0616 -137.488
1589 -22.0028 17.9529 1.4 27.5304 -91.4209 178.483
1590 -21.2528 17.9529 1.4 26.7852 -94.4655 -103.443
1591 -20.5028 17.9529 1.4 26.0401 -87.1723 108.535
1592 -19.7528 17.9529 1.4 25.2954 -90.6297 150.123
1593 -19.0028 17.9529 1.4 24.551 -86.7144 109.048
1594 -18.2528 17.9529 1.4 23.807 -90.7065 -138.575
1595 -17.5028 17.9529 1.4 23.0633 -93.3807 -96.466
1596 -16.7528 17.9529 1.4 22.32 -85.5506 12.8942
1597 -16.0028 17.9529 1.4 21.5773 -81.5099 -145.381
1598 -15.2528 17.9529 1.4 20.835 -81.5941 -116.733
1599 -14.5028 17.9529 1.4 20.0933 -78.7586 -142.002
1600 -13.7528 17.9529 1.4 19.3523 -89.1074 147.358
1601 -13.0028 17.9529 1.4 18.612 -67.3196 -130.676
1602 -12.2528 17.9529 1.4 17.8724 -67.0127 -17.9323
1603 -11.5028 17.9529 1.4 17.1338 -78.6935 45.8436
1604 -10.7528 17.9529 1.4 16.3963 -65.4374 102.361
1605 -10.0028 17.9529 1.4 15.6599 -79.8702 -52.2746
1606 -9.25282 17.9529 1.4 14.9248 -63.4314 7.19244
1607 -8.50282 17.9529 1.4 14.1914 -61.2039 2.50299
1608 -7.75282 17.9529 1.4 13.4597 -63.8807 -9.03566
1609 -7.00282 17.9529 1.4 12.7302 -55.7609 57.7992
1610 -6.25282 17.9529 1.4 12.0032 -59.7632 -60.2399
1611 -5.50282 17.9529 1.4 11.2792 -61.9177 -114.597
1612 -4.75282 17.9529 1.4 10.5589 -60.2818 -136.874
1613 -4.00282 17.9529 1.4 9.84298 -58.7582 -97.6875
1614 -3.25282 17.9529 1.4 9.13254 -50.1276 -37.0136
1615 -2.50282 17.9529 1.4 8.42896 -52.22 -117.816
1616 -1.75282 17.9529 1.4 7.73411 -51.7892 24.5259
1617 -1.00282 17.9529 1.4 7.05058 -56.9772 -12.9846
1618 -0.25282 17.9529 1.4 6.38199 -47.25 -145.879
1619 0.49718 17.9529 1.4 5.73357 -51.9634 -100.65
1620 1.24718 17.9529 1.4 5.11302 -49.5598 73.8217
1621 1.99718 17.9529 1.4 4.53178 -56.0496 -79.6287
1622 2.74718 17.9529 1.4 4.00702 -45.3768 159.775
1623 3.49718 17.9529 1.4 3.56375 -46.2454 -63.2319
1624 4.24718 17.9529 1.4 3.23564 -44.2259 167.806
1625 4.99718 17.9529 1.4 3.05998 -42.7725 -64.4124
1626 5.74718 17.9529 1.4 3.06311 -41.0941 -74.2503
1627 6.49718 17.9529 1.4 3.24449 -40.9831 107.089
1628 7.24718 17.9529 1.4 3.57713 -48.2433 26.194
1629 7.99718 17.9529 1.4 4.02367 -53.6719 34.0446
1630 8.74718 17.9529 1.4 4.55072 -47.8658 -47.4802
1631 9.49718 17.9529 1.4 5.13353 -44.6831 37.8794
1632 10.2472 17.9529 1.4 5.75519 -47.8669 -150.484
1633 10.9972 17.9529 1.4 6.4044 -51.4518 129.503
1634 11.7472 17.9529 1.4 7.07358 -59.2128 52.0776
1635 12.4972 17.9529 1.4 7.75755 -51.6792 29.6742
1636 13.2472 17.9529 1.4 8.45273 -52.6513 110.196
1637 13.9972 17.9529 1.4 9.15657 -58.3617 -144.716
1638 14.7472 17.9529 1.4 9.86721 -67.8567 -62.5842
1639 15.4972 17.9529 1.4 10.5833 -66.8978 65.2282
1640 16.2472 17.9529 1.4 11.3038 -61.3347 -135.946
1641 16.9972 17.9529 1.4 12.0279 -65.4295 2.4242
1642 17.7472 17.9529 1.4 12.7549 -59.1033 -97.2794
1643 18.4972 17.9529 1.4 13.4845 -64.0714 -68.0552
1644 19.2472 17.9529 1.4 14.2162 -63.43 1.81856
1645 19.9972 17.9529 1.4 14.9498 -65.4854 2.03821
1646 20.7472 17.9529 1.4 15.6849 -62.3023 -16.0179
1647 21.4972 17.9529 1.4 16.4213 -73.4006 122.122
1648 22.2472 17.9529 1.4 17.1589 -76.042 101.576
1649 22.9972 17.9529 1.4 17.8975 -77.8066 6.27154
1650 23.7472 17.9529 1.4 18.6371 -79.7497 -110.454
1651 24.4972 17.9529 1.4 19.3774 -114.242 152.562
1652 25.2472 17.9529 1.4 20.1185 -105.007 5.34239
1653 25.9972 17.9529 1.4 20.8602 -95.8414 134.768
1654 26.7472 17.9529 1.4 21.6025 -91.5171 -21.8151
1655 27.4972 17.9529 1.4 22.3453 -102.424 24.0436
1656 28.2472 17.9529 1.4 23.0885 -119.126 -18.3442
1657 28.9972 17.9529 1.4 23.8322 -91.3426 -140.749
1658 29.7472 17.9529 1.4 24.5763 -119.205 -104.067
1659 30.4972 17.9529 1.4 25.3207 -137.816 -62.7091
1660 -28.0028 18.7029 1.4 33.5767 -127.645 29.5439
1661 -27.2528 18.7029 1.4 32.8316 -107.977 66.5893
1662 -26.5028 18.7029 1.4 32.0867 -98.2901 -39.0143
1663 -25.7528 18.7029 1.4 31.3421 -115.348 28.963
1664 -25.0028 18.7029 1.4 30.5977 -250 0
1665 -24.2528 18.7029 1.4 29.8536 -117.603 3.38353
1666 -23.5028 18.7029 1.4 29.1098 -92.7715 19.9996
1667 -22.7528 18.7029 1.4 28.3664 -98.9385 -169.414
1668 -22.0028 18.7029 1.4 27.6233 -83.6153 -104.234
1669 -21.2528 18.7029 1.4 26.8806 -94.4841 8.91415
1670 -20.5028 18.7029 1.4 26.1383 -103.371 -63.639
1671 -19.7528 18.7029 1.4 25.3964 -89.3134 -116.545
1672 -19.0028 18.7029 1.4 24.6551 -96.7143 -48.6729
1673 -18.2528 18.7029 1.4 23.9142 -103.098 -16.1129
1674 -17.5028 18.7029 1.4 23.174 -112.481 175.594
1675 -16.7528 18.7029 1.4 22.4345 -78.2029 108.557
1676 -16.0028 18.7029 1.4 21.6956 -77.8709 88.9962
1677 -15.2528 18.7029 1.4 20.9575 -86.8802 102.775
1678 -14.5028 18.7029 1.4 20.2203 -84.4251 81.7307
1679 -13.7528 18.7029 1.4 19.4841 -71.6714 75.1974
1680 -13.0028 18.7029 1.4 18.749 -67.4812 -178.719
1681 -12.2528 18.7029 1.4 18.0151 -67.0907 -116.365
1682 -11.5028 18.7029 1.4 17.2826 -65.2655 -81.1265
1683 -10.7528 18.7029 1.4 16.5517 -64.8493 -68.697
1684 -10.0028 18.7029 1.4 15.8225 -62.6701 -138.708
1685 -9.25282 18.7029 1.4 15.0954 -62.2802 -168.203
1686 -8.50282 18.7029 1.4 14.3706 -60.4042 136.139
1687 -7.75282 18.7029 1.4 13.6486 -57.7512 122.473
1688 -7.00282 18.7029 1.4 12.9297 -67.7189 -117.276
1689 -6.25282 18.7029 1.4 12.2146 -59.3904 179.247
1690 -5.50282 18.7029 1.4 11.504 -57.3904 127.592
1691 -4.75282 18.7029 1.4 10.7986 -54.9159 68.8227
1692 -4.00282 18.7029 1.4 10.0997 -62.7031 -19.3241
1693 -3.25282 18.7029 1.4 9.40869 -54.2389 96.1818
1694 -2.50282 18.7029 1.4 8.72741 -52.446 91.7552
1695 -1.75282 18.7029 1.4 8.05833 -49.5722 -39.4053
1696 -1.00282 18.7029 1.4 7.40478 -50.5741 60.9997
1697 -0.25282 18.7029 1.4 6.77126 -56.1151 132.059
1698 0.49718 18.7029 1.4 6.16393 -53.2638 -132.757
1699 1.24718 18.7029 1.4 5.59135 -60.4462 76.3644
1700 1.99718 18.7029 1.4 5.0653 -47.0497 -58.9788
1701 2.74718 18.7029 1.4 4.60178 -51.0827 126.653
1702 3.49718 18.7029 1.4 4.22143 -52.7515 73.9215
1703 4.24718 18.7029 1.4 3.94837 -39.7272 -176.061
1704 4.99718 18.7029 1.4 3.80575 -43.4931 -114.504
1705 5.74718 18.7029 1.4 3.80826 -41.6366 -104.367
1706 6.49718 18.7029 1.4 3.95562 -45.3801 -123.438
1707 7.24718 18.7029 1.4 4.23273 -59.8836 -131.187
1708 7.99718 18.7029 1.4 4.61629 -53.7419 151.804
1709 8.74718 18.7029 1.4 5.08225 -49.1123 -171.315
1710 9.49718 18.7029 1.4 5.61011 -52.9417 25.8136
1711 10.2472 18.7029 1.4 6.18405 -48.5719 115.639
1712 10.9972 18.7029 1.4 6.79239 -61.4273 169.646
1713 11.7472 18.7029 1.4 7.42669 -56.743 -34.9145
1714 12.4972 18.7029 1.4 8.08083 -59.9214 -89.7022
1715 13.2472 18.7029 1.4 8.75037 -58.0164 -135.121
1716 13.9972 18.7029 1.4 9.43202 -69.0702 53.2379
1717 14.7472 18.7029 1.4 10.1233 -51.4538 -109.613
1718 15.4972 18.7029 1.4 10.8225 -52.5763 -41.8235
1719 16.2472 18.7029 1.4 11.528 -60.5007 -9.64831
1720 16.9972 18.7029 1.4 12.2388 -59.5689 -101.579
1721 17.7472 18.7029 1.4 12.9541 -64.0563 -77.6895
1722 18.4972 18.7029 1.4 13.6731 -64.78 1.97699
1723 19.2472 18.7029 1.4 14.3952 -68.0783 88.1141
1724 19.9972 18.7029 1.4 15.12 -66.0984 57.2055
1725 20.7472 18.7029 1.4 15.8472 -62.4473 -172.567
1726 21.4972 18.7029 1.4 16.5765 -71.2508 -23.735
1727 22.2472 18.7029 1.4 17.3075 -78.0971 -88.2183
1728 22.9972 18.7029 1.4 18.04 -77.5548 -97.4083
1729 23.7472 18.7029 1.4 18.774 -81.3172 -116.807
1730 24.4972 18.7029 1.4 19.5091 -81.1457 135.673
1731 25.2472 18.7029 1.4 20.2454 -85.0944 21.6521
1732 25.9972 18.7029 1.4 20.9826 -93.1502 -138.645
1733 26.7472 18.7029 1.4 21.7207 -111.594 -143.609
1734 27.4972 18.7029 1.4 22.4596 -101.17 133.533
1735 28.2472 18.7029 1.4 23.1992 -92.5071 57.6569
1736 28.9972 18.7029 1.4 23.9394 -111.894 -147.259
1737 29.7472 18.7029 1.4 24.6802 -110.913 -125.494
1738 30.4972 18.7029 1.4 25.4216 -112.202 87.4872
1739 -28.0028 19.4529 1.4 33.6695 -111.106 44.7621
1740 -27.2528 19.4529 1.4 32.9265 -130.656 -140.511
1741 -26.5028 19.4529 1.4 32.1839 -122.49 154.511
1742 -25.7528 19.4529 1.4 31.4415 -100.508 -143.939
1743 -25.0028 19.4529 1.4 30.6996 -138.772 -19.3227
1744 -24.2528 19.4529 1.4 29.958 -100.537 128.829
1745 -23.5028 19.4529 1.4 29.2169 -94.6249 -64.5674
1746 -22.7528 19.4529 1.4 28.4763 -93.5039 129.211
1747 -22.0028 19.4529 1.4 27.7361 -82.8223 -83.8306
1748 -21.2528 19.4529 1.4 26.9965 -88.96 146.255
1749 -20.5028 19.4529 1.4 26.2575 -94.8519 -50.3075
1750 -19.7528 19.4529 1.4 25.5191 -95.3601 -49.7385
1751 -19.0028 19.4529 1.4 24.7814 -102.499 140.342
1752 -18.2528 19.4529 1.4 24.0445 -97.928 -31.7872
1753 -17.5028 19.4529 1.4 23.3084 -110.846 15.3017
1754 -16.7528 19.4529 1.4 22.5732 -72.4042 -76.039
1755 -16.0028 19.4529 1.4 21.839 -74.6841 -63.2631
1756 -15.2528 19.4529 1.4 21.106 -79.9898 -111.953
1757 -14.5028 19.4529 1.4 20.3742 -73.2937 -78.0983
1758 -13.7528 19.4529 1.4 19.6437 -68.8435 -5.91127
1759 -13.0028 19.4529 1.4 18.9148 -66.2994 57.871
1760 -12.2528 19.4529 1.4 18.1876 -67.396 88.4981
1761 -11.5028 19.4529 1.4 17.4623 -67.2341 91.4232
1762 -10.7528 19.4529 1.4 16.7393 -64.9113 74.4877
1763 -10.0028 19.4529 1.4 16.0186 -56.3878 -53.0248
1764 -9.25282 19.4529 1.4 15.3008 -60.8812 -37.62
1765 -8.50282 19.4529 1.4 14.5863 -57.0471 -43.9363
1766 -7.75282 19.4529 1.4 13.8755 -57.4083 -35.9125
1767 -7.00282 19.4529 1.4 13.169 -55.7358 -18.1853
1768 -6.25282 19.4529 1.4 12.4676 -58.0095 137.081
1769 -5.50282 19.4529 1.4 11.7723 -69.2414 40.0859
1770 -4.75282 19.4529 1.4 11.084 -54.4704 -109.685
1771 -4.00282 19.4529 1.4 10.4043 -63.0721 176.263
1772 -3.25282 19.4529 1.4 9.73492 -55.6241 76.2191
1773 -2.50282 19.4529 1.4 9.07815 -52.8928 -136.881
1774 -1.75282 19.4529 1.4 8.43694 -51.6493 -139.064
1775 -1.00282 19.4529 1.4 7.81512 -51.6695 -138.351
1776 -0.25282 19.4529 1.4 7.2177 -52.817 -27.3054
1777 0.49718 19.4529 1.4 6.65126 -48.0545 159.176
1778 1.24718 19.4529 1.4 6.12441 -56.933 107.801
1779 1.99718 19.4529 1.4 5.64823 -57.4492 -62.4029
1780 2.74718 19.4529 1.4 5.23656 -54.1138 49.3617
1781 3.49718 19.4529 1.4 4.90568 -46.3625 -40.3067
1782 4.24718 19.4529 1.4 4.67277 -43.9224 159.186
1783 4.99718 19.4529 1.4 4.5529 -53.614 -137.249
1784 5.74718 19.4529 1.4 4.555 -42.7385 176.387
1785 6.49718 19.4529 1.4 4.6789 -45.8822 -151.331
1786 7.24718 19.4529 1.4 4.91541 -54.0207 -29.2342
1787 7.99718 19.4529 1.4 5.24932 -60.6377 176.264
1788 8.74718 19.4529 1.4 5.66343 -58.0661 -44.2901
1789 9.49718 19.4529 1.4 6.14154 -62.1074 -152.553
1790 10.2472 19.4529 1.4 6.66991 -58.7646 -160.688
1791 10.9972 19.4529 1.4 7.23753 -50.3539 -88.5556
1792 11.7472 19.4529 1.4 7.83587 -63.148 34.3637
1793 12.4972 19.4529 1.4 8.45843 -52.8677 176.013
1794 13.2472 19.4529 1.4 9.10022 -49.708 78.0799
1795 13.9972 19.4529 1.4 9.75747 -59.57 39.6745
1796 14.7472 19.4529 1.4 10.4272 -71.2992 19.0469
1797 15.4972 19.4529 1.4 11.1073 -54.8714 138.137
1798 16.2472 19.4529 1.4 11.7958 -59.3871 -3.03273
1799 16.9972 19.4529 1.4 12.4914 -55.4472 72.451
1800 17.7472 19.4529 1.4 13.1929 -52.4984 153.279
1801 18.4972 19.4529 1.4 13.8996 -69.2776 136.897
1802 19.2472 19.4529 1.4 14.6105 -59.5494 125.184
1803 19.9972 19.4529 1.4 15.3252 -64.0606 -95.2934
1804 20.7472 19.4529 1.4 16.0431 -77.3507 6.15191
1805 21.4972 19.4529 1.4 16.7638 -73.3743 105.006
1806 22.2472 19.4529 1.4 17.4869 -71.4776 115.388
1807 22.9972 19.4529 1.4 18.2123 -73.2016 116.184
1808 23.7472 19.4529 1.4 18.9396 -80.8718 97.5158
1809 24.4972 19.4529 1.4 19.6685 -105.741 -91.5912
1810 25.2472 19.4529 1.4 20.399 -100.093 34.214
1811 25.9972 19.4529 1.4 21.1309 -86.0042 -133.271
1812 26.7472 19.4529 1.4 21.864 -81.5275 121.425
1813 27.4972 19.4529 1.4 22.5982 -109.132 138.635
1814 28.2472 19.4529 1.4 23.3334 -100.41 -159.928
1815 28.9972 19.4529 1.4 24.0695 -99.4504 137.392
1816 29.7472 19.4529 1.4 24.8064 -117.713 -51.192
1817 30.4972 19.4529 1.4 25.5441 -110.018 138.74
1818 -28.0028 20.2029 1.4 33.7788 -116.784 5.89923
1819 -27.2528 20.2029 1.4 33.0383 -133.115 -69.0207
1820 -26.5028 20.2029 1.4 32.2982 -101.111 -11.0856
1821 -25.7528 20.2029 1.4 31.5585 -110.107 112.698
1822 -25.0028 20.2029 1.4 30.8194 -118.58 15.2349
1823 -24.2528 20.2029 1.4 30.0808 -93.4068 36.8823
1824 -23.5028 20.2029 1.4 29.3428 -87.0575 6.29323
1825 -22.7528 20.2029 1.4 28.6054 -104.135 -69.1598
1826 -22.0028 20.2029 1.4 27.8686 -102.908 -154.658
1827 -21.2528 20.2029 1.4 27.1326 -92.2969 -103.508
1828 -20.5028 20.2029 1.4 26.3974 -111.153 -87.3627
1829 -19.7528 20.2029 1.4 25.6631 -110.542 -154.314
1830 -19.0028 20.2029 1.4 24.9297 -100.286 -167.038
1831 -18.2528 20.2029 1.4 24.1972 -99.1552 -156.366
1832 -17.5028 20.2029 1.4 23.466 -96.0984 -55.0787
1833 -16.7528 20.2029 1.4 22.7359 -71.2829 -103.846
1834 -16.0028 20.2029 1.4 22.0071 -74.9823 76.6051
1835 -15.2528 20.2029 1.4 21.2799 -67.8852 112.935
1836 -14.5028 20.2029 1.4 20.5543 -67.0608 174.779
1837 -13.7528 20.2029 1.4 19.8304 -70.5287 -141.673
1838 -13.0028 20.2029 1.4 19.1086 -66.6724 -108.832
1839 -12.2528 20.2029 1.4 18.3891 -64.558 -128.88
1840 -11.5028 20.2029 1.4 17.6721 -66.0526 -141.203
1841 -10.7528 20.2029 1.4 16.958 -68.6034 158.03
1842 -10.0028 20.2029 1.4 16.2471 -58.8804 141.98
1843 -9.25282 20.2029 1.4 15.5398 -63.9736 143.682
1844 -8.50282 20.2029 1.4 14.8368 -70.3266 109.156
1845 -7.75282 20.2029 1.4 14.1386 -60.9059 99.7303
1846 -7.00282 20.2029 1.4 13.4459 -61.6542 125.002
1847 -6.25282 20.2029 1.4 12.7598 -56.6853 7.15241
1848 -5.50282 20.2029 1.4 12.0812 -58.455 -123.964
1849 -4.75282 20.2029 1.4 11.4116 -57.2798 111.701
1850 -4.00282 20.2029 1.4 10.7527 -54.6873 -89.6048
1851 -3.25282 20.2029 1.4 10.1064 -50.1746 -17.7341
1852 -2.50282 20.2029 1.4 9.47539 -53.7668 62.3878
1853 -1.75282 20.2029 1.4 8.86296 -56.4421 -118.457
1854 -1.00282 20.2029 1.4 8.27322 -50.3095 124.157
1855 -0.25282 20.2029 1.4 7.71138 -53.7674 -21.604
1856 0.49718 20.2029 1.4 7.18397 -67.1998 2.68422
1857 1.24718 20.2029 1.4 6.69915 -55.1013 120.353
1858 1.99718 20.2029 1.4 6.26679 -66.2538 -46.6705
1859 2.74718 20.2029 1.4 5.89846 -62.8151 -107.437
1860 3.49718 20.2029 1.4 5.60677 -47.1542 -8.44021
1861 4.24718 20.2029 1.4 5.40416 -57.6452 -114.802
1862 4.99718 20.2029 1.4 5.30086 -61.1802 -72.475
1863 5.74718 20.2029 1.4 5.30266 -45.5264 99.0886
1864 6.49718 20.2029 1.4 5.40947 -49.4618 -140.387
1865 7.24718 20.2029 1.4 5.61528 -56.3701 155.282
1866 7.99718 20.2029 1.4 5.90978 -61.707 -36.0155
1867 8.74718 20.2029 1.4 6.2805 -55.6101 -59.5581
1868 9.49718 20.2029 1.4 6.71482 -52.3251 72.3131
1869 10.2472 20.2029 1.4 7.20124 -59.0556 30.3572
1870 10.9972 20.2029 1.4 7.72994 -58.781 -94.9261
1871 11.7472 20.2029 1.4 8.29283 -50.5513 16.5216
1872 12.4972 20.2029 1.4 8.88342 -54.1744 50.8255
1873 13.2472 20.2029 1.4 9.49654 -65.359 -34.7852
1874 13.9972 20.2029 1.4 10.1281 -50.6384 -85.0774
1875 14.7472 20.2029 1.4 10.7749 -52.019 -177.701
1876 15.4972 20.2029 1.4 11.4342 -65.7718 128.914
1877 16.2472 20.2029 1.4 12.1042 -59.1615 -12.6916
1878 16.9972 20.2029 1.4 12.783 -59.0029 -81.8494
1879 17.7472 20.2029 1.4 13.4694 -65.7411 11.0172
1880 18.4972 20.2029 1.4 14.1622 -59.4417 -152.061
1881 19.2472 20.2029 1.4 14.8606 -60.2589 -84.6596
1882 19.9972 20.2029 1.4 15.5638 -58.4946 -32.832
1883 20.7472 20.2029 1.4 16.2712 -66.9412 42.1177
1884 21.4972 20.2029 1.4 16.9822 -70.3888 168.406
1885 22.2472 20.2029 1.4 17.6964 -74.1362 -115.306
1886 22.9972 20.2029 1.4 18.4135 -73.6183 -86.0972
1887 23.7472 20.2029 1.4 19.1331 -97.228 -117.504
1888 24.4972 20.2029 1.4 19.855 -91.6056 -8.11354
1889 25.2472 20.2029 1.4 20.5789 -107.07 101.801
1890 25.9972 20.2029 1.4 21.3046 -122.717 171.256
1891 26.7472 20.2029 1.4 22.0319 -92.1395 177.773
1892 27.4972 20.2029 1.4 22.7607 -82.6417 -82.0332
1893 28.2472 20.2029 1.4 23.4908 -109.61 -85.7024
1894 28.9972 20.2029 1.4 24.2221 -114.827 -94.1799
1895 29.7472 20.2029 1.4 24.9546 -113.996 92.2709
1896 30.4972 20.2029 1.4 25.688 -115.681 74.4741
