#Rx
# X(m), Y(m), Z(m), Distance(m), Power (dBm) Phase (deg)
1 -28.0028 2.95289 1.4 33.5641 -250 0
2 -26.5028 2.95289 1.4 32.0641 -250 0
3 -25.0028 2.95289 1.4 30.5641 -250 0
4 -23.5028 2.95289 1.4 29.0641 -250 0
5 -22.0028 2.95289 1.4 27.5641 -250 0
6 -20.5028 2.95289 1.4 26.0641 -76.2875 -167.862
7 -19.0028 2.95289 1.4 24.5642 -64.7577 -12.0047
8 -17.5028 2.95289 1.4 23.0642 -75.6084 136.318
9 -16.0028 2.95289 1.4 21.5642 -66.0874 -7.64745
10 -14.5028 2.95289 1.4 20.0642 -64.8057 6.9082
11 -13.0028 2.95289 1.4 18.5643 -60.534 -172.665
12 -11.5028 2.95289 1.4 17.0643 -63.5779 -76.0359
13 -10.0028 2.95289 1.4 15.5643 -75.013 -27.1936
14 -8.50282 2.95289 1.4 14.0644 -66.3969 65.0272
15 -7.00282 2.95289 1.4 12.5645 -58.7657 -153.185
16 -5.50282 2.95289 1.4 11.0645 -66.7536 -60.4558
17 -4.00282 2.95289 1.4 9.56465 -64.19 67.9306
18 -2.50282 2.95289 1.4 8.0648 -59.9018 -144.966
19 -1.00282 2.95289 1.4 6.56502 -63.4744 -52.2376
20 0.49718 2.95289 1.4 5.06536 -49.5693 112.926
21 1.99718 2.95289 1.4 3.566 -43.634 -161.286
22 3.49718 2.95289 1.4 2.06756 -44.6837 -61.664
23 4.99718 2.95289 1.4 0.577276 -30.3414 100.822
24 6.49718 2.95289 1.4 0.9443 -34.1534 95.0037
25 7.99718 2.95289 1.4 2.43929 -46.1824 -61.8751
26 9.49718 2.95289 1.4 3.9381 -45.7807 -125.267
27 10.9972 2.95289 1.4 5.43756 -52.6292 49.0916
28 12.4972 2.95289 1.4 6.93726 -52.8973 -1.40417
29 13.9972 2.95289 1.4 8.43706 -58.0497 174.72
30 15.4972 2.95289 1.4 9.93692 -52.4409 112.64
31 16.9972 2.95289 1.4 11.4368 -67.5016 57.2067
32 18.4972 2.95289 1.4 12.9367 -68.1151 172.755
33 19.9972 2.95289 1.4 14.4367 -59.5102 174.717
34 21.4972 2.95289 1.4 15.9366 -68.0524 70.4135
35 22.9972 2.95289 1.4 17.4366 -58.6802 3.77969
36 24.4972 2.95289 1.4 18.9366 -57.5253 101.734
37 25.9972 2.95289 1.4 20.4365 -58.2457 -34.4812
38 27.4972 2.95289 1.4 21.9365 -72.0753 88.5282
39 28.9972 2.95289 1.4 23.4365 -73.1441 -23.0014
40 30.4972 2.95289 1.4 24.9365 -68.907 -65.9259
41 -28.0028 4.45289 1.4 33.6031 -250 0
42 -26.5028 4.45289 1.4 32.1049 -250 0
43 -25.0028 4.45289 1.4 30.607 -250 0
44 -23.5028 4.45289 1.4 29.1092 -250 0
45 -22.0028 4.45289 1.4 27.6116 -250 0
46 -20.5028 4.45289 1.4 26.1144 -92.6115 -141.834
47 -19.0028 4.45289 1.4 24.6175 -82.1524 67.3975
48 -17.5028 4.45289 1.4 23.1209 -97.4253 -97.5649
49 -16.0028 4.45289 1.4 21.6249 -63.8825 41.1341
50 -14.5028 4.45289 1.4 20.1294 -60.658 135.862
51 -13.0028 4.45289 1.4 18.6347 -61.7016 -139.741
52 -11.5028 4.45289 1.4 17.1409 -57.4691 -50.7249
53 -10.0028 4.45289 1.4 15.6483 -56.9138 48.8162
54 -8.50282 4.45289 1.4 14.1573 -62.2965 124.301
55 -7.00282 4.45289 1.4 12.6683 -55.2473 -119.85
56 -5.50282 4.45289 1.4 11.1824 -59.1237 -56.1448
57 -4.00282 4.45289 1.4 9.70071 -57.1381 45.4413
58 -2.50282 4.45289 1.4 8.22571 -51.1783 -148.981
59 -1.00282 4.45289 1.4 6.76171 -58.4411 -175.126
60 0.49718 4.45289 1.4 5.31782 -46.8365 63.8848
61 1.99718 4.45289 1.4 3.91634 -47.6049 -77.5626
62 3.49718 4.45289 1.4 2.62605 -42.6522 179.357
63 4.99718 4.45289 1.4 1.71889 -39.6588 -46.5284
64 6.49718 4.45289 1.4 1.87431 -45.4204 -129.651
65 7.99718 4.45289 1.4 2.92771 -41.8857 18.0621
66 9.49718 4.45289 1.4 4.25793 -44.8567 19.4712
67 10.9972 4.45289 1.4 5.67348 -46.6572 55.4141
68 12.4972 4.45289 1.4 7.12368 -49.7317 155.719
69 13.9972 4.45289 1.4 8.591 -53.302 -172.643
70 15.4972 4.45289 1.4 10.068 -52.5315 63.2063
71 16.9972 4.45289 1.4 11.5509 -53.3174 -1.80519
72 18.4972 4.45289 1.4 13.0377 -55.2644 -147.463
73 19.9972 4.45289 1.4 14.5272 -54.6466 111.281
74 21.4972 4.45289 1.4 16.0187 -50.8542 45.7811
75 22.9972 4.45289 1.4 17.5116 -62.7769 -92.6596
76 24.4972 4.45289 1.4 19.0056 -53.5176 -148.554
77 25.9972 4.45289 1.4 20.5006 -57.3233 41.6473
78 27.4972 4.45289 1.4 21.9962 -85.9517 111.796
79 28.9972 4.45289 1.4 23.4923 -93.2086 -59.3111
80 30.4972 4.45289 1.4 24.989 -79.1586 -46.2218
81 -28.0028 5.95289 1.4 33.7089 -250 0
82 -26.5028 5.95289 1.4 32.2157 -116.77 133.121
83 -25.0028 5.95289 1.4 30.7231 -117.469 -163.872
84 -23.5028 5.95289 1.4 29.2312 -250 0
85 -22.0028 5.95289 1.4 27.7403 -250 0
86 -20.5028 5.95289 1.4 26.2504 -87.9717 -73.6624
87 -19.0028 5.95289 1.4 24.7617 -86.2565 107.323
88 -17.5028 5.95289 1.4 23.2744 -76.3192 86.1212
89 -16.0028 5.95289 1.4 21.7889 -57.4756 -49.8908
90 -14.5028 5.95289 1.4 20.3056 -68.9708 -64.7942
91 -13.0028 5.95289 1.4 18.8248 -60.333 -142.962
92 -11.5028 5.95289 1.4 17.3474 -55.7848 -153.853
93 -10.0028 5.95289 1.4 15.8742 -54.6833 36.6923
94 -8.50282 5.95289 1.4 14.4066 -68.1112 129.489
95 -7.00282 5.95289 1.4 12.9464 -55.3299 173.861
96 -5.50282 5.95289 1.4 11.4964 -57.4607 160.358
97 -4.00282 5.95289 1.4 10.0611 -55.4942 26.1844
98 -2.50282 5.95289 1.4 8.64776 -52.3058 13.1185
99 -1.00282 5.95289 1.4 7.26926 -49.6558 91.7373
100 0.49718 5.95289 1.4 5.94984 -58.9947 25.9976
101 1.99718 5.95289 1.4 4.7391 -50.16 71.2269
102 3.49718 5.95289 1.4 3.74399 -65.4994 -157.163
103 4.99718 5.95289 1.4 3.17426 -42.3092 -9.63504
104 6.49718 5.95289 1.4 3.26104 -45.6159 57.0639
105 7.99718 5.95289 1.4 3.96142 -48.9727 133.501
106 9.49718 5.95289 1.4 5.02507 -51.696 -101.216
107 10.9972 5.95289 1.4 6.26975 -55.4942 82.3443
108 12.4972 5.95289 1.4 7.60712 -49.7599 155.81
109 13.9972 5.95289 1.4 8.99593 -69.0943 -13.1145
110 15.4972 5.95289 1.4 10.4156 -58.4923 -9.55741
111 16.9972 5.95289 1.4 11.8551 -63.3381 -112.748
112 18.4972 5.95289 1.4 13.308 -67.6825 -152.896
113 19.9972 5.95289 1.4 14.7703 -57.8131 -82.362
114 21.4972 5.95289 1.4 16.2394 -63.1848 -26.1006
115 22.9972 5.95289 1.4 17.7138 -65.9607 120.816
116 24.4972 5.95289 1.4 19.1921 -63.1755 140.099
117 25.9972 5.95289 1.4 20.6735 -68.0334 -22.6418
118 27.4972 5.95289 1.4 22.1575 -79.909 58.5613
119 28.9972 5.95289 1.4 23.6434 -85.6885 105.85
120 30.4972 5.95289 1.4 25.1311 -94.2944 28.7126
121 -28.0028 7.45289 1.4 33.8808 -104.798 -17.0954
122 -26.5028 7.45289 1.4 32.3955 -142.866 39.106
123 -25.0028 7.45289 1.4 30.9116 -135.991 -155.997
124 -23.5028 7.45289 1.4 29.4294 -250 0
125 -22.0028 7.45289 1.4 27.949 -250 0
126 -20.5028 7.45289 1.4 26.4708 -92.1785 87.5115
127 -19.0028 7.45289 1.4 24.9952 -87.309 -64.0013
128 -17.5028 7.45289 1.4 23.5228 -81.2009 -64.5071
129 -16.0028 7.45289 1.4 22.054 -59.3655 -107.842
130 -14.5028 7.45289 1.4 20.5897 -55.3385 -112.487
131 -13.0028 7.45289 1.4 19.131 -64.4385 178.04
132 -11.5028 7.45289 1.4 17.6792 -57.4445 -166.789
133 -10.0028 7.45289 1.4 16.2362 -58.9279 -106.25
134 -8.50282 7.45289 1.4 14.8044 -69.4301 -146.41
135 -7.00282 7.45289 1.4 13.3877 -65.4865 -75.4157
136 -5.50282 7.45289 1.4 11.9912 -56.7694 97.0257
137 -4.00282 7.45289 1.4 10.6229 -65.3232 -83.1172
138 -2.50282 7.45289 1.4 9.29543 -61.0943 -90.0219
139 -1.00282 7.45289 1.4 8.02891 -55.7286 29.9559
140 0.49718 7.45289 1.4 6.85725 -51.424 -32.0917
141 1.99718 7.45289 1.4 5.83784 -58.8002 104.218
142 3.49718 7.45289 1.4 5.06348 -59.9141 55.4017
143 4.99718 7.45289 1.4 4.65804 -48.8634 -115.265
144 6.49718 7.45289 1.4 4.7176 -40.6275 93.0223
145 7.99718 7.45289 1.4 5.2263 -46.9392 29.0078
146 9.49718 7.45289 1.4 6.07229 -46.9355 14.3738
147 10.9972 7.45289 1.4 7.1366 -51.2298 176.169
148 12.4972 7.45289 1.4 8.33604 -52.4333 -160.344
149 13.9972 7.45289 1.4 9.62019 -51.6197 -63.2694
150 15.4972 7.45289 1.4 10.9593 -59.4863 46.4882
151 16.9972 7.45289 1.4 12.3355 -56.1462 -172.213
152 18.4972 7.45289 1.4 13.7377 -66.486 -27.5288
153 19.9972 7.45289 1.4 15.1586 -61.6934 -42.4252
154 21.4972 7.45289 1.4 16.5934 -67.4081 24.3071
155 22.9972 7.45289 1.4 18.0388 -69.6195 171.709
156 24.4972 7.45289 1.4 19.4925 -65.9717 136.743
157 25.9972 7.45289 1.4 20.9527 -71.3715 -111.62
158 27.4972 7.45289 1.4 22.4182 -83.8036 -83.7901
159 28.9972 7.45289 1.4 23.8879 -80.4739 52.9449
160 30.4972 7.45289 1.4 25.3612 -86.1914 -143.132
161 -28.0028 8.95289 1.4 34.1179 -115.232 8.21345
162 -26.5028 8.95289 1.4 32.6434 -114.861 105.668
163 -25.0028 8.95289 1.4 31.1713 -102.71 141.298
164 -23.5028 8.95289 1.4 29.702 -114.7 69.1084
165 -22.0028 8.95289 1.4 28.2359 -148.676 -77.1003
166 -20.5028 8.95289 1.4 26.7736 -86.4524 22.5747
167 -19.0028 8.95289 1.4 25.3157 -83.3978 -179.468
168 -17.5028 8.95289 1.4 23.863 -83.3251 164.299
169 -16.0028 8.95289 1.4 22.4165 -62.6965 -167.367
170 -14.5028 8.95289 1.4 20.9776 -64.278 173.022
171 -13.0028 8.95289 1.4 19.5478 -62.1751 69.7678
172 -11.5028 8.95289 1.4 18.1294 -71.4593 61.2207
173 -10.0028 8.95289 1.4 16.7253 -58.2918 -160.487
174 -8.50282 8.95289 1.4 15.3392 -59.8449 -24.4654
175 -7.00282 8.95289 1.4 13.9768 -65.0707 6.2314
176 -5.50282 8.95289 1.4 12.6455 -53.5349 44.6933
177 -4.00282 8.95289 1.4 11.3564 -62.4764 -84.5151
178 -2.50282 8.95289 1.4 10.1255 -51.8957 -24.7569
179 -1.00282 8.95289 1.4 8.97691 -65.5743 -100.034
180 0.49718 8.95289 1.4 7.94627 -62.6815 -160.8
181 1.99718 8.95289 1.4 7.08532 -54.4717 63.6499
182 3.49718 8.95289 1.4 6.46221 -59.3844 1.30889
183 4.99718 8.95289 1.4 6.14969 -45.3322 -177.059
184 6.49718 8.95289 1.4 6.19493 -44.3035 114.431
185 7.99718 8.95289 1.4 6.59057 -53.587 -137.578
186 9.49718 8.95289 1.4 7.2797 -49.0571 17.8769
187 10.9972 8.95289 1.4 8.18856 -59.6619 -22.011
188 12.4972 8.95289 1.4 9.25262 -51.1034 16.395
189 13.9972 8.95289 1.4 10.4245 -61.0998 105.181
190 15.4972 8.95289 1.4 11.6717 -58.3991 -174.134
191 16.9972 8.95289 1.4 12.9725 -61.5774 9.63316
192 18.4972 8.95289 1.4 14.3124 -73.6116 -99.2276
193 19.9972 8.95289 1.4 15.6813 -64.502 161.783
194 21.4972 8.95289 1.4 17.0722 -71.6979 30.9751
195 22.9972 8.95289 1.4 18.4803 -66.3285 -103.465
196 24.4972 8.95289 1.4 19.9017 -69.4848 -115.434
197 25.9972 8.95289 1.4 21.3339 -85.8079 14.1602
198 27.4972 8.95289 1.4 22.7749 -83.0727 158.762
199 28.9972 8.95289 1.4 24.223 -81.2677 -104.095
200 30.4972 8.95289 1.4 25.6771 -79.5217 73.7858
201 -28.0028 10.4529 1.4 34.4188 -101.174 -32.1684
202 -26.5028 10.4529 1.4 32.9577 -98.5104 78.9445
203 -25.0028 10.4529 1.4 31.5003 -112.624 134.673
204 -23.5028 10.4529 1.4 30.0471 -97.3914 -46.6427
205 -22.0028 10.4529 1.4 28.5987 -102.124 -76.9362
206 -20.5028 10.4529 1.4 27.156 -86.9382 87.1376
207 -19.0028 10.4529 1.4 25.7197 -86.616 -163.85
208 -17.5028 10.4529 1.4 24.2912 -92.3656 110.295
209 -16.0028 10.4529 1.4 22.8719 -70.4361 24.9649
210 -14.5028 10.4529 1.4 21.4635 -70.2273 174.753
211 -13.0028 10.4529 1.4 20.0683 -63.3141 1.55949
212 -11.5028 10.4529 1.4 18.6895 -63.6166 91.8606
213 -10.0028 10.4529 1.4 17.3308 -63.6906 178.93
214 -8.50282 10.4529 1.4 15.9973 -58.375 -144.835
215 -7.00282 10.4529 1.4 14.696 -59.4696 38.1578
216 -5.50282 10.4529 1.4 13.4362 -60.0671 -56.0849
217 -4.00282 10.4529 1.4 12.2307 -50.3731 -85.1255
218 -2.50282 10.4529 1.4 11.0972 -56.8285 108.051
219 -1.00282 10.4529 1.4 10.0601 -59.4432 -5.18222
220 0.49718 10.4529 1.4 9.1523 -55.3267 45.3605
221 1.99718 10.4529 1.4 8.41565 -56.9146 -167.735
222 3.49718 10.4529 1.4 7.8982 -61.3988 18.3329
223 4.99718 10.4529 1.4 7.64461 -57.95 -166.315
224 6.49718 10.4529 1.4 7.68104 -62.8938 -41.0394
225 7.99718 10.4529 1.4 8.00356 -54.5054 -4.30717
226 9.49718 10.4529 1.4 8.57994 -51.9955 20.8368
227 10.9972 10.4529 1.4 9.36343 -54.5168 -162.11
228 12.4972 10.4529 1.4 10.3069 -49.7546 -179.439
229 13.9972 10.4529 1.4 11.3706 -56.498 21.36
230 15.4972 10.4529 1.4 12.5239 -52.955 107.002
231 16.9972 10.4529 1.4 13.7444 -57.3316 -78.6682
232 18.4972 10.4529 1.4 15.0155 -68.7564 37.3969
233 19.9972 10.4529 1.4 16.3256 -71.5816 -134.199
234 21.4972 10.4529 1.4 17.6659 -73.6568 126.819
235 22.9972 10.4529 1.4 19.03 -68.0292 52.8658
236 24.4972 10.4529 1.4 20.4132 -75.3887 -24.9864
237 25.9972 10.4529 1.4 21.8119 -87.4748 -20.8609
238 27.4972 10.4529 1.4 23.2232 -73.3978 172.174
239 28.9972 10.4529 1.4 24.645 -83.0244 -136.497
240 30.4972 10.4529 1.4 26.0755 -79.1476 -45.949
241 -28.0028 11.9529 1.4 34.7818 -96.4237 -129.432
242 -26.5028 11.9529 1.4 33.3367 -93.6813 -3.42782
243 -25.0028 11.9529 1.4 31.8966 -104.787 29.4286
244 -23.5028 11.9529 1.4 30.4623 -82.52 -123.255
245 -22.0028 11.9529 1.4 29.0346 -78.1876 79.3954
246 -20.5028 11.9529 1.4 27.6146 -76.6033 -20.4274
247 -19.0028 11.9529 1.4 26.2036 -73.2437 -20.7123
248 -17.5028 11.9529 1.4 24.8029 -75.4414 -170.034
249 -16.0028 11.9529 1.4 23.4146 -76.0548 178.108
250 -14.5028 11.9529 1.4 22.0409 -85.3612 55.7103
251 -13.0028 11.9529 1.4 20.6848 -71.1026 -112.513
252 -11.5028 11.9529 1.4 19.3499 -74.0517 -31.0062
253 -10.0028 11.9529 1.4 18.041 -73.6718 116.06
254 -8.50282 11.9529 1.4 16.7641 -77.5395 37.4777
255 -7.00282 11.9529 1.4 15.5272 -68.0475 -44.8985
256 -5.50282 11.9529 1.4 14.3406 -64.354 -70.4012
257 -4.00282 11.9529 1.4 13.2178 -58.1716 -11.5076
258 -2.50282 11.9529 1.4 12.1766 -65.015 -139.168
259 -1.00282 11.9529 1.4 11.2396 -65.0245 156.281
260 0.49718 11.9529 1.4 10.4348 -66.6168 -172.658
261 1.99718 11.9529 1.4 9.79512 -62.406 -60.5017
262 3.49718 11.9529 1.4 9.3543 -55.3717 55.9861
263 4.99718 11.9529 1.4 9.14119 -56.6349 115.211
264 6.49718 11.9529 1.4 9.17168 -57.7303 145.469
265 7.99718 11.9529 1.4 9.44342 -59.9365 144.229
266 9.49718 11.9529 1.4 9.93663 -56.7183 -170.258
267 10.9972 11.9529 1.4 10.6205 -62.2331 -59.6333
268 12.4972 11.9529 1.4 11.461 -70.7298 -149.299
269 13.9972 11.9529 1.4 12.4263 -58.8605 112.221
270 15.4972 11.9529 1.4 13.4896 -56.9731 -106.596
271 16.9972 11.9529 1.4 14.6297 -67.2224 -144.238
272 18.4972 11.9529 1.4 15.83 -69.317 25.3582
273 19.9972 11.9529 1.4 17.0776 -68.6956 157.052
274 21.4972 11.9529 1.4 18.3631 -59.1628 -129.587
275 22.9972 11.9529 1.4 19.679 -64.8983 131.362
276 24.4972 11.9529 1.4 21.0195 -78.1364 -88.5192
277 25.9972 11.9529 1.4 22.3803 -98.5512 -75.1852
278 27.4972 11.9529 1.4 23.7579 -84.5974 -104.983
279 28.9972 11.9529 1.4 25.1495 -88.7493 -19.6647
280 30.4972 11.9529 1.4 26.5529 -85.2679 -22.7404
281 -28.0028 13.4529 1.4 35.2051 -95.3264 44.5123
282 -26.5028 13.4529 1.4 33.778 -107.049 30.4287
283 -25.0028 13.4529 1.4 32.3576 -98.5074 16.2645
284 -23.5028 13.4529 1.4 30.9447 -78.8212 147.042
285 -22.0028 13.4529 1.4 29.5403 -71.5923 -140.9
286 -20.5028 13.4529 1.4 28.1459 -79.0435 -151.974
287 -19.0028 13.4529 1.4 26.7628 -72.6482 175.475
288 -17.5028 13.4529 1.4 25.393 -82.3972 -159.468
289 -16.0028 13.4529 1.4 24.0388 -77.8648 118.075
290 -14.5028 13.4529 1.4 22.7029 -74.2682 -163.256
291 -13.0028 13.4529 1.4 21.3888 -84.397 159.433
292 -11.5028 13.4529 1.4 20.1007 -68.4052 101.767
293 -10.0028 13.4529 1.4 18.844 -75.1201 98.1821
294 -8.50282 13.4529 1.4 17.6255 -66.1051 117.626
295 -7.00282 13.4529 1.4 16.4534 -62.494 161.17
296 -5.50282 13.4529 1.4 15.3386 -59.5079 -168.795
297 -4.00282 13.4529 1.4 14.2945 -66.1627 98.2739
298 -2.50282 13.4529 1.4 13.3376 -66.3654 35.4696
299 -1.00282 13.4529 1.4 12.4879 -64.7428 -67.4494
300 0.49718 13.4529 1.4 11.7689 -68.6937 -31.2022
301 1.99718 13.4529 1.4 11.2056 -76.538 -74.3976
302 3.49718 13.4529 1.4 10.8224 -61.8407 113.248
303 4.99718 13.4529 1.4 10.6387 -66.9507 -84.3283
304 6.49718 13.4529 1.4 10.6649 -55.5727 45.1295
305 7.99718 13.4529 1.4 10.8995 -53.8565 149.373
306 9.49718 13.4529 1.4 11.3295 -59.3036 49.3204
307 10.9972 13.4529 1.4 11.9338 -54.7739 -6.92213
308 12.4972 13.4529 1.4 12.6876 -64.1273 -29.6192
309 13.9972 13.4529 1.4 13.5659 -59.7144 85.37
310 15.4972 13.4529 1.4 14.5462 -75.7068 24.4909
311 16.9972 13.4529 1.4 15.6093 -59.1636 106.678
312 18.4972 13.4529 1.4 16.7394 -60.4373 0.494112
313 19.9972 13.4529 1.4 17.9239 -64.8262 -25.4887
314 21.4972 13.4529 1.4 19.1527 -60.9806 -74.5066
315 22.9972 13.4529 1.4 20.4177 -65.8826 -174.351
316 24.4972 13.4529 1.4 21.7127 -79.3761 67.2892
317 25.9972 13.4529 1.4 23.0326 -79.0162 23.4062
318 27.4972 13.4529 1.4 24.3733 -84.395 -173.167
319 28.9972 13.4529 1.4 25.7317 -87.5171 -156.853
320 30.4972 13.4529 1.4 27.1049 -89.7849 117.269
321 -28.0028 14.9529 1.4 35.6864 -94.1164 78.391
322 -26.5028 14.9529 1.4 34.2794 -101.111 -158.865
323 -25.0028 14.9529 1.4 32.8806 -90.6172 -38.9619
324 -23.5028 14.9529 1.4 31.4912 -86.7385 9.16985
325 -22.0028 14.9529 1.4 30.1123 -88.7855 -58.1516
326 -20.5028 14.9529 1.4 28.7456 -93.4983 0.230534
327 -19.0028 14.9529 1.4 27.3929 -107.008 155.375
328 -17.5028 14.9529 1.4 26.0562 -107.359 -49.3944
329 -16.0028 14.9529 1.4 24.7383 -93.5692 135.407
330 -14.5028 14.9529 1.4 23.4424 -104.499 61.9439
331 -13.0028 14.9529 1.4 22.1721 -98.2551 -92.5881
332 -11.5028 14.9529 1.4 20.9323 -90.8212 -21.7011
333 -10.0028 14.9529 1.4 19.7286 -91.6464 43.9754
334 -8.50282 14.9529 1.4 18.5682 -77.629 -141.446
335 -7.00282 14.9529 1.4 17.4596 -63.5103 26.325
336 -5.50282 14.9529 1.4 16.4133 -78.3965 -12.8166
337 -4.00282 14.9529 1.4 15.4419 -85.1854 22.8186
338 -2.50282 14.9529 1.4 14.5606 -74.7174 54.7963
339 -1.00282 14.9529 1.4 13.7866 -79.7051 119.645
340 0.49718 14.9529 1.4 13.1388 -65.7638 107.759
341 1.99718 14.9529 1.4 12.6367 -66.4707 89.2237
342 3.49718 14.9529 1.4 12.2982 -58.1703 -77.7315
343 4.99718 14.9529 1.4 12.1369 -62.9333 -27.2448
344 6.49718 14.9529 1.4 12.1599 -55.3758 -84.3774
345 7.99718 14.9529 1.4 12.3661 -65.9182 174.619
346 9.49718 14.9529 1.4 12.7467 -60.7987 75.7845
347 10.9972 14.9529 1.4 13.2868 -55.7652 -30.1016
348 12.4972 14.9529 1.4 13.9677 -66.6043 113.053
349 13.9972 14.9529 1.4 14.7701 -64.2846 160.016
350 15.4972 14.9529 1.4 15.6752 -69.0573 132.861
351 16.9972 14.9529 1.4 16.6665 -70.554 -97.2363
352 18.4972 14.9529 1.4 17.7294 -61.9457 24.6322
353 19.9972 14.9529 1.4 18.8518 -68.6293 -20.8493
354 21.4972 14.9529 1.4 20.0237 -79.5187 -104.549
355 22.9972 14.9529 1.4 21.2369 -88.481 153.311
356 24.4972 14.9529 1.4 22.4847 -105.86 49.056
357 25.9972 14.9529 1.4 23.7618 -85.1631 48.6598
358 27.4972 14.9529 1.4 25.0635 -85.6906 179.621
359 28.9972 14.9529 1.4 26.3863 -107.173 -157.01
360 30.4972 14.9529 1.4 27.7272 -98.8899 -150.959
361 -28.0028 16.4529 1.4 36.2235 -83.4448 177.719
362 -26.5028 16.4529 1.4 34.8382 -87.5913 -95.0317
363 -25.0028 16.4529 1.4 33.4628 -96.2575 -44.2946
364 -23.5028 16.4529 1.4 32.0985 -91.7999 0.537402
365 -22.0028 16.4529 1.4 30.7469 -85.7589 127.147
366 -20.5028 16.4529 1.4 29.4097 -93.1621 70.415
367 -19.0028 16.4529 1.4 28.089 -97.9088 -31.0098
368 -17.5028 16.4529 1.4 26.7871 -99.8069 -85.5096
369 -16.0028 16.4529 1.4 25.507 -99.9488 119.383
370 -14.5028 16.4529 1.4 24.2521 -92.7418 -29.7703
371 -13.0028 16.4529 1.4 23.0266 -89.593 115.845
372 -11.5028 16.4529 1.4 21.8353 -87.2023 163.662
373 -10.0028 16.4529 1.4 20.6843 -77.3937 32.6349
374 -8.50282 16.4529 1.4 19.5806 -63.5276 -42.5246
375 -7.00282 16.4529 1.4 18.5326 -66.5826 -175.363
376 -5.50282 16.4529 1.4 17.5504 -63.6695 -163.417
377 -4.00282 16.4529 1.4 16.6456 -76.1439 -159.604
378 -2.50282 16.4529 1.4 15.8314 -72.2386 157.228
379 -1.00282 16.4529 1.4 15.1226 -82.0556 -36.9329
380 0.49718 16.4529 1.4 14.5344 -74.3245 -97.342
381 1.99718 16.4529 1.4 14.0822 -60.8379 76.4027
382 3.49718 16.4529 1.4 13.7792 -60.6653 -113.401
383 4.99718 16.4529 1.4 13.6354 -65.8395 163.028
384 6.49718 16.4529 1.4 13.6559 -63.1535 40.2217
385 7.99718 16.4529 1.4 13.8399 -60.5982 113.253
386 9.49718 16.4529 1.4 14.181 -59.2435 -78.3529
387 10.9972 16.4529 1.4 14.6683 -67.757 -22.9109
388 12.4972 16.4529 1.4 15.2878 -58.2128 -118.102
389 13.9972 16.4529 1.4 16.0242 -66.7371 -18.1095
390 15.4972 16.4529 1.4 16.8622 -65.5085 81.1167
391 16.9972 16.4529 1.4 17.7874 -68.2406 -35.926
392 18.4972 16.4529 1.4 18.787 -66.5683 136.852
393 19.9972 16.4529 1.4 19.8497 -64.7768 -92.2562
394 21.4972 16.4529 1.4 20.9659 -81.7283 -137.928
395 22.9972 16.4529 1.4 22.1275 -85.1275 -110.115
396 24.4972 16.4529 1.4 23.3278 -99.0854 -34.4092
397 25.9972 16.4529 1.4 24.561 -91.9293 -146.386
398 27.4972 16.4529 1.4 25.8225 -87.7833 -82.3303
399 28.9972 16.4529 1.4 27.1083 -104.438 165.211
400 30.4972 16.4529 1.4 28.4151 -99.0588 -113.54
401 -28.0028 17.9529 1.4 36.8139 -97.5564 -128.182
402 -26.5028 17.9529 1.4 35.4516 -89.7168 -75.3893
403 -25.0028 17.9529 1.4 34.101 -111.363 56.0722
404 -23.5028 17.9529 1.4 32.7633 -128.58 52.6843
405 -22.0028 17.9529 1.4 31.4403 -104.086 -25.8506
406 -20.5028 17.9529 1.4 30.1339 -95.6966 112.825
407 -19.0028 17.9529 1.4 28.8463 -97.6066 68.1563
408 -17.5028 17.9529 1.4 27.5802 -103.298 -0.187336
409 -16.0028 17.9529 1.4 26.3387 -99.7603 -64.6279
410 -14.5028 17.9529 1.4 25.1254 -91.2501 -73.215
411 -13.0028 17.9529 1.4 23.9446 -86.9617 66.4303
412 -11.5028 17.9529 1.4 22.8014 -92.4875 174.486
413 -10.0028 17.9529 1.4 21.7017 -70.1299 -167.619
414 -8.50282 17.9529 1.4 20.6524 -70.6232 97.4396
415 -7.00282 17.9529 1.4 19.6616 -64.2004 101.453
416 -5.50282 17.9529 1.4 18.7387 -73.9883 15.1544
417 -4.00282 17.9529 1.4 17.894 -74.5095 74.9125
418 -2.50282 17.9529 1.4 17.1393 -66.4339 -63.2523
419 -1.00282 17.9529 1.4 16.4867 -70.5291 140.584
420 0.49718 17.9529 1.4 15.949 -71.8783 -12.5335
421 1.99718 17.9529 1.4 15.538 -62.4201 83.4964
422 3.49718 17.9529 1.4 15.264 -56.3555 -178.253
423 4.99718 17.9529 1.4 15.1343 -72.2522 81.5333
424 6.49718 17.9529 1.4 15.1527 -56.3497 60.2314
425 7.99718 17.9529 1.4 15.3187 -59.9741 -91.9724
426 9.49718 17.9529 1.4 15.6276 -55.727 -31.6644
427 10.9972 17.9529 1.4 16.0711 -70.8119 10.7754
428 12.4972 17.9529 1.4 16.6385 -58.9573 50.7751
429 13.9972 17.9529 1.4 17.3175 -63.9134 -173.002
430 15.4972 17.9529 1.4 18.0957 -61.1214 -101.597
431 16.9972 17.9529 1.4 18.9609 -59.8491 -16.5195
432 18.4972 17.9529 1.4 19.9016 -71.4639 151.456
433 19.9972 17.9529 1.4 20.9077 -70.2797 53.3795
434 21.4972 17.9529 1.4 21.9702 -82.2406 -127.057
435 22.9972 17.9529 1.4 23.0813 -89.3795 99.6895
436 24.4972 17.9529 1.4 24.2344 -113.345 53.742
437 25.9972 17.9529 1.4 25.4237 -98.1005 -101.865
438 27.4972 17.9529 1.4 26.6444 -94.8782 164.518
439 28.9972 17.9529 1.4 27.8923 -118.466 124.115
440 30.4972 17.9529 1.4 29.164 -127.647 8.45023
441 -28.0028 19.4529 1.4 37.4551 -250 0
442 -26.5028 19.4529 1.4 36.117 -250 0
443 -25.0028 19.4529 1.4 34.7922 -250 0
444 -23.5028 19.4529 1.4 33.4822 -144.387 -1.04772
445 -22.0028 19.4529 1.4 32.1888 -110.128 -79.9535
446 -20.5028 19.4529 1.4 30.914 -132.595 83.8485
447 -19.0028 19.4529 1.4 29.6603 -107.545 63.9718
448 -17.5028 19.4529 1.4 28.4305 -111.66 89.6118
449 -16.0028 19.4529 1.4 27.2277 -90.7158 -82.6723
450 -14.5028 19.4529 1.4 26.0559 -101.161 9.44067
451 -13.0028 19.4529 1.4 24.9192 -84.9722 -33.3634
452 -11.5028 19.4529 1.4 23.8228 -90.1704 -127.269
453 -10.0028 19.4529 1.4 22.7724 -75.0193 -42.168
454 -8.50282 19.4529 1.4 21.7748 -73.9383 74.1425
455 -7.00282 19.4529 1.4 20.8375 -78.4656 -34.278
456 -5.50282 19.4529 1.4 19.9689 -68.8768 14.0798
457 -4.00282 19.4529 1.4 19.1786 -76.47 87.7535
458 -2.50282 19.4529 1.4 18.4764 -64.1713 66.5561
459 -1.00282 19.4529 1.4 17.8727 -80.3362 0.552625
460 0.49718 19.4529 1.4 17.3779 -63.8688 40.0536
461 1.99718 19.4529 1.4 17.0015 -65.4582 123.042
462 3.49718 19.4529 1.4 16.7514 -55.8551 107.4
463 4.99718 19.4529 1.4 16.6333 -63.4227 130.94
464 6.49718 19.4529 1.4 16.6501 -54.4861 71.1234
465 7.99718 19.4529 1.4 16.8013 -66.018 -139.021
466 9.49718 19.4529 1.4 17.0834 -56.541 45.8852
467 10.9972 19.4529 1.4 17.4901 -66.0899 132.703
468 12.4972 19.4529 1.4 18.0128 -54.9087 -33.0249
469 13.9972 19.4529 1.4 18.6419 -61.4074 79.9191
470 15.4972 19.4529 1.4 19.3669 -76.4585 -177.675
471 16.9972 19.4529 1.4 20.1776 -61.9531 64.1598
472 18.4972 19.4529 1.4 21.064 -67.3446 -39.5822
473 19.9972 19.4529 1.4 22.0171 -77.8919 7.08459
474 21.4972 19.4529 1.4 23.0285 -95.4045 -4.98896
475 22.9972 19.4529 1.4 24.0909 -80.5555 89.3424
476 24.4972 19.4529 1.4 25.1978 -105.632 52.7283
477 25.9972 19.4529 1.4 26.3436 -86.1953 -103.516
478 27.4972 19.4529 1.4 27.5235 -97.9446 97.4532
479 28.9972 19.4529 1.4 28.7333 -112.626 174.402
480 30.4972 19.4529 1.4 29.9693 -111.633 -169.886
