#Rx
# X(m), Y(m), Z(m), Distance(m), Power (dBm) Phase (deg)
1 -28.0028 2.95289 1.4 25.0488 -91.849 -92.224
2 -26.5028 2.95289 1.4 23.7889 -95.4469 101.212
3 -25.0028 2.95289 1.4 22.5584 -95.3866 -115.652
4 -23.5028 2.95289 1.4 21.3625 -95.5009 21.5993
5 -22.0028 2.95289 1.4 20.2071 -91.5511 -116.17
6 -20.5028 2.95289 1.4 19.0997 -90.0505 102.944
7 -19.0028 2.95289 1.4 18.049 -80.5345 172.069
8 -17.5028 2.95289 1.4 17.0657 -93.6585 -124.962
9 -16.0028 2.95289 1.4 16.162 -71.3358 11.6677
10 -14.5028 2.95289 1.4 15.3519 -67.6256 -116.528
11 -13.0028 2.95289 1.4 14.651 -70.9483 -72.4552
12 -11.5028 2.95289 1.4 14.0756 -65.4117 -77.2564
13 -10.0028 2.95289 1.4 13.6416 -63.453 12.6209
14 -8.50282 2.95289 1.4 13.3628 -60.128 49.2641
15 -7.00282 2.95289 1.4 13.249 -51.1442 19.8427
16 -5.50282 2.95289 1.4 13.3044 -58.8168 -150.322
17 -4.00282 2.95289 1.4 13.527 -64.8326 48.3331
18 -2.50282 2.95289 1.4 13.9086 -56.63 -43.6009
19 -1.00282 2.95289 1.4 14.4368 -63.1926 176.179
20 0.49718 2.95289 1.4 15.0961 -67.9259 43.8898
21 1.99718 2.95289 1.4 15.8702 -71.9068 -165.159
22 3.49718 2.95289 1.4 16.7432 -80.1871 78.7977
23 4.99718 2.95289 1.4 17.7004 -63.5049 127.691
24 6.49718 2.95289 1.4 18.729 -62.8966 -85.3986
25 7.99718 2.95289 1.4 19.8178 -67.4603 -83.6897
26 9.49718 2.95289 1.4 20.9575 -63.447 124.954
27 10.9972 2.95289 1.4 22.1402 -67.2229 -156.675
28 12.4972 2.95289 1.4 23.3594 -70.1655 -40.159
29 13.9972 2.95289 1.4 24.6096 -66.9405 162.229
30 15.4972 2.95289 1.4 25.8863 -66.344 -130.352
31 16.9972 2.95289 1.4 27.1859 -78.7944 -62.0425
32 18.4972 2.95289 1.4 28.5052 -75.5013 -81.255
33 19.9972 2.95289 1.4 29.8415 -79.3659 -175.192
34 21.4972 2.95289 1.4 31.1927 -76.1375 50.2643
35 22.9972 2.95289 1.4 32.557 -83.417 60.6032
36 24.4972 2.95289 1.4 33.9327 -80.5395 -59.7445
37 25.9972 2.95289 1.4 35.3186 -76.215 104.978
38 27.4972 2.95289 1.4 36.7134 -76.8366 -21.781
39 28.9972 2.95289 1.4 38.1162 -80.0711 -169.348
40 30.4972 2.95289 1.4 39.5261 -87.4823 121.008
41 -28.0028 4.45289 1.4 24.2889 -90.6506 -69.8492
42 -26.5028 4.45289 1.4 22.9875 -92.8495 -13.6574
43 -25.0028 4.45289 1.4 21.7116 -85.7295 32.9653
44 -23.5028 4.45289 1.4 20.4662 -90.2751 -52.4016
45 -22.0028 4.45289 1.4 19.2571 -93.2296 -84.2949
46 -20.5028 4.45289 1.4 18.0916 -83.0173 8.85464
47 -19.0028 4.45289 1.4 16.9788 -85.8259 89.6157
48 -17.5028 4.45289 1.4 15.9295 -80.4426 -126.958
49 -16.0028 4.45289 1.4 14.9573 -74.638 -3.57236
50 -14.5028 4.45289 1.4 14.0781 -80.309 -43.6842
51 -13.0028 4.45289 1.4 13.3102 -62.0641 7.68223
52 -11.5028 4.45289 1.4 12.6741 -65.4366 -127.898
53 -10.0028 4.45289 1.4 12.1904 -63.432 27.4437
54 -8.50282 4.45289 1.4 11.8775 -61.6038 132.04
55 -7.00282 4.45289 1.4 11.7493 -52.9647 73.957
56 -5.50282 4.45289 1.4 11.8118 -53 12.4154
57 -4.00282 4.45289 1.4 12.0619 -70.54 101.559
58 -2.50282 4.45289 1.4 12.4884 -60.6299 -81.8279
59 -1.00282 4.45289 1.4 13.0741 -54.4459 -4.65175
60 0.49718 4.45289 1.4 13.7986 -71.6922 101.864
61 1.99718 4.45289 1.4 14.6415 -65.5238 138.201
62 3.49718 4.45289 1.4 15.5835 -65.8639 -112.823
63 4.99718 4.45289 1.4 16.6077 -58.7313 58.289
64 6.49718 4.45289 1.4 17.6999 -65.3077 22.5798
65 7.99718 4.45289 1.4 18.8483 -59.7563 -122.46
66 9.49718 4.45289 1.4 20.0432 -61.1026 -54.5345
67 10.9972 4.45289 1.4 21.2767 -64.9124 -104.253
68 12.4972 4.45289 1.4 22.5426 -66.1336 121.053
69 13.9972 4.45289 1.4 23.8357 -68.8153 -113.858
70 15.4972 4.45289 1.4 25.1518 -76.6106 -114.391
71 16.9972 4.45289 1.4 26.4874 -75.6443 171.881
72 18.4972 4.45289 1.4 27.8398 -70.6762 -24.3968
73 19.9972 4.45289 1.4 29.2066 -74.3145 -59.0878
74 21.4972 4.45289 1.4 30.5859 -72.3154 -79.6204
75 22.9972 4.45289 1.4 31.9761 -76.2048 -144.591
76 24.4972 4.45289 1.4 33.3757 -80.2437 -158.831
77 25.9972 4.45289 1.4 34.7838 -81.7943 166.632
78 27.4972 4.45289 1.4 36.1992 -79.606 -13.2686
79 28.9972 4.45289 1.4 37.6212 -78.0985 -18.8923
80 30.4972 4.45289 1.4 39.049 -75.9291 22.4563
81 -28.0028 5.95289 1.4 23.6001 -89.8359 106.408
82 -26.5028 5.95289 1.4 22.2583 -89.7419 -149.885
83 -25.0028 5.95289 1.4 20.9381 -90.3781 18.8855
84 -23.5028 5.95289 1.4 19.6437 -97.7147 43.7203
85 -22.0028 5.95289 1.4 18.3806 -80.1829 -0.460139
86 -20.5028 5.95289 1.4 17.1557 -77.0338 -81.8198
87 -19.0028 5.95289 1.4 15.9778 -78.4113 -103.919
88 -17.5028 5.95289 1.4 14.858 -94.0541 -34.8259
89 -16.0028 5.95289 1.4 13.8105 -69.5069 138.376
90 -14.5028 5.95289 1.4 12.8531 -68.3804 67.68
91 -13.0028 5.95289 1.4 12.0072 -61.9118 -68.9904
92 -11.5028 5.95289 1.4 11.298 -71.0356 158.63
93 -10.0028 5.95289 1.4 10.7525 -66.0416 110.456
94 -8.50282 5.95289 1.4 10.3965 -66.1592 176.264
95 -7.00282 5.95289 1.4 10.2498 -61.0324 -162.57
96 -5.50282 5.95289 1.4 10.3213 -48.5773 171.67
97 -4.00282 5.95289 1.4 10.6066 -62.0421 -27.6789
98 -2.50282 5.95289 1.4 11.0892 -53.355 -169.565
99 -1.00282 5.95289 1.4 11.7449 -62.4391 177.886
100 0.49718 5.95289 1.4 12.5464 -58.6165 79.3143
101 1.99718 5.95289 1.4 13.4679 -67.2444 -25.6929
102 3.49718 5.95289 1.4 14.4864 -65.621 158.728
103 4.99718 5.95289 1.4 15.5829 -60.6857 162.035
104 6.49718 5.95289 1.4 16.7421 -65.3576 -8.17602
105 7.99718 5.95289 1.4 17.9518 -70.13 -32.5561
106 9.49718 5.95289 1.4 19.2026 -62.7069 -109.553
107 10.9972 5.95289 1.4 20.4868 -66.3919 8.71539
108 12.4972 5.95289 1.4 21.7987 -71.4975 101.481
109 13.9972 5.95289 1.4 23.1334 -73.4016 -28.2094
110 15.4972 5.95289 1.4 24.4872 -80.5235 97.2253
111 16.9972 5.95289 1.4 25.8572 -96.0894 -87.3272
112 18.4972 5.95289 1.4 27.2409 -79.5648 -85.6767
113 19.9972 5.95289 1.4 28.6363 -73.4248 -29.8186
114 21.4972 5.95289 1.4 30.0418 -74.993 -19.1949
115 22.9972 5.95289 1.4 31.456 -74.011 -15.8992
116 24.4972 5.95289 1.4 32.8778 -71.8554 6.67623
117 25.9972 5.95289 1.4 34.3063 -85.2468 -11.1336
118 27.4972 5.95289 1.4 35.7406 -69.9727 44.4309
119 28.9972 5.95289 1.4 37.1801 -88.1161 103.538
120 30.4972 5.95289 1.4 38.6243 -66.8282 -149.401
121 -28.0028 7.45289 1.4 22.9885 -76.8663 -125.124
122 -26.5028 7.45289 1.4 21.6089 -88.7922 95.0237
123 -25.0028 7.45289 1.4 20.2464 -83.8588 144.182
124 -23.5028 7.45289 1.4 18.9047 -81.201 137.535
125 -22.0028 7.45289 1.4 17.5886 -84.492 -75.8759
126 -20.5028 7.45289 1.4 16.3042 -81.2585 69.6816
127 -19.0028 7.45289 1.4 15.0599 -73.4117 32.5624
128 -17.5028 7.45289 1.4 13.8662 -84.1798 128.735
129 -16.0028 7.45289 1.4 12.7374 -64.8126 99.7517
130 -14.5028 7.45289 1.4 11.6924 -63.643 -110.638
131 -13.0028 7.45289 1.4 10.7556 -64.737 22.0926
132 -11.5028 7.45289 1.4 9.95766 -70.2943 -175.044
133 -10.0028 7.45289 1.4 9.33413 -62.3558 -121.313
134 -8.50282 7.45289 1.4 8.92172 -65.218 -59.9793
135 -7.00282 7.45289 1.4 8.75032 -53.2316 15.6394
136 -5.50282 7.45289 1.4 8.83398 -48.1468 -131.071
137 -4.00282 7.45289 1.4 9.16571 -65.7267 -165.415
138 -2.50282 7.45289 1.4 9.72015 -62.2444 121.337
139 -1.00282 7.45289 1.4 10.462 -51.3085 25.0708
140 0.49718 7.45289 1.4 11.3544 -59.2301 141.147
141 1.99718 7.45289 1.4 12.3651 -54.7881 -58.3199
142 3.49718 7.45289 1.4 13.4672 -62.6675 -53.806
143 4.99718 7.45289 1.4 14.6402 -66.2137 50.0068
144 6.49718 7.45289 1.4 15.8685 -66.4082 41.8108
145 7.99718 7.45289 1.4 17.14 -68.7015 54.9062
146 9.49718 7.45289 1.4 18.4459 -77.353 81.5033
147 10.9972 7.45289 1.4 19.7793 -79.8205 -97.7721
148 12.4972 7.45289 1.4 21.1351 -71.6037 62.9859
149 13.9972 7.45289 1.4 22.5092 -77.4859 -131.785
150 15.4972 7.45289 1.4 23.8984 -81.2106 -137.456
151 16.9972 7.45289 1.4 25.3003 -82.3822 -10.9451
152 18.4972 7.45289 1.4 26.7129 -79.4768 151.006
153 19.9972 7.45289 1.4 28.1345 -74.1359 -29.2114
154 21.4972 7.45289 1.4 29.5638 -74.5264 -46.7924
155 22.9972 7.45289 1.4 30.9998 -69.0501 120.642
156 24.4972 7.45289 1.4 32.4417 -79.1295 170.728
157 25.9972 7.45289 1.4 33.8885 -71.3074 -102.99
158 27.4972 7.45289 1.4 35.3398 -71.1803 -20.2576
159 28.9972 7.45289 1.4 36.795 -86.2116 -42.2948
160 30.4972 7.45289 1.4 38.2537 -66.0277 -110.249
161 -28.0028 8.95289 1.4 22.4607 -84.836 -129.341
162 -26.5028 8.95289 1.4 21.0465 -80.3894 -60.2533
163 -25.0028 8.95289 1.4 19.645 -78.0997 -53.2322
164 -23.5028 8.95289 1.4 18.2592 -77.1648 89.3842
165 -22.0028 8.95289 1.4 16.8928 -94.968 52.2179
166 -20.5028 8.95289 1.4 15.5512 -93.4371 56.6458
167 -19.0028 8.95289 1.4 14.2411 -86.479 -80.8062
168 -17.5028 8.95289 1.4 12.9723 -76.0116 41.7625
169 -16.0028 8.95289 1.4 11.7581 -66.1089 57.6568
170 -14.5028 8.95289 1.4 10.6171 -65.4233 -127.023
171 -13.0028 8.95289 1.4 9.57572 -57.8427 -41.857
172 -11.5028 8.95289 1.4 8.66981 -60.6678 55.7171
173 -10.0028 8.95289 1.4 7.94585 -74.939 98.8966
174 -8.50282 8.95289 1.4 7.45706 -65.2831 66.0629
175 -7.00282 8.95289 1.4 7.25112 -51.2944 94.4805
176 -5.50282 8.95289 1.4 7.35186 -52.1763 -59.3285
177 -4.00282 8.95289 1.4 7.74732 -67.1565 103.898
178 -2.50282 8.95289 1.4 8.39595 -54.8871 44.777
179 -1.00282 8.95289 1.4 9.24462 -56.3964 99.3426
180 0.49718 8.95289 1.4 10.2437 -57.5716 60.5515
181 1.99718 8.95289 1.4 11.3536 -58.2944 -9.54047
182 3.49718 8.95289 1.4 12.545 -62.6589 120.617
183 4.99718 8.95289 1.4 13.7966 -65.44 5.97425
184 6.49718 8.95289 1.4 15.0937 -62.1085 154.655
185 7.99718 8.95289 1.4 16.4253 -65.4657 -109.844
186 9.49718 8.95289 1.4 17.7837 -65.395 -63.7009
187 10.9972 8.95289 1.4 19.1633 -69.2386 -174.575
188 12.4972 8.95289 1.4 20.5597 -67.6743 -57.9419
189 13.9972 8.95289 1.4 21.9698 -74.1847 -78.1562
190 15.4972 8.95289 1.4 23.3911 -79.3829 113.324
191 16.9972 8.95289 1.4 24.8217 -71.6509 157.625
192 18.4972 8.95289 1.4 26.26 -83.6879 -179.762
193 19.9972 8.95289 1.4 27.7048 -78.9129 60.5733
194 21.4972 8.95289 1.4 29.1553 -68.2396 -73.0354
195 22.9972 8.95289 1.4 30.6105 -70.7473 -57.3839
196 24.4972 8.95289 1.4 32.0698 -70.0651 140.958
197 25.9972 8.95289 1.4 33.5327 -63.2547 -75.8378
198 27.4972 8.95289 1.4 34.9988 -79.0935 44.6415
199 28.9972 8.95289 1.4 36.4676 -71.5131 129.486
200 30.4972 8.95289 1.4 37.9388 -70.0456 64.7955
201 -28.0028 10.4529 1.4 22.0226 -79.0837 121.648
202 -26.5028 10.4529 1.4 20.5783 -72.1996 -169.174
203 -25.0028 10.4529 1.4 19.1425 -75.1492 29.754
204 -23.5028 10.4529 1.4 17.7174 -72.5453 -41.4813
205 -22.0028 10.4529 1.4 16.3058 -70.1674 161.61
206 -20.5028 10.4529 1.4 14.9114 -65.9992 -131.411
207 -19.0028 10.4529 1.4 13.5396 -70.3532 149.842
208 -17.5028 10.4529 1.4 12.198 -81.0003 125.756
209 -16.0028 10.4529 1.4 10.8978 -74.2837 -10.9231
210 -14.5028 10.4529 1.4 9.65577 -64.8417 145.383
211 -13.0028 10.4529 1.4 8.49735 -64.5386 -15.7845
212 -11.5028 10.4529 1.4 7.46164 -56.5298 56.0132
213 -10.0028 10.4529 1.4 6.6066 -67.3157 50.5979
214 -8.50282 10.4529 1.4 6.00985 -60.2516 0.57405
215 -7.00282 10.4529 1.4 5.75233 -49.3415 -105.643
216 -5.50282 10.4529 1.4 5.87881 -51.5956 42.0516
217 -4.00282 10.4529 1.4 6.36643 -59.7246 153.591
218 -2.50282 10.4529 1.4 7.14161 -54.3618 78.7478
219 -1.00282 10.4529 1.4 8.12242 -52.476 150.305
220 0.49718 10.4529 1.4 9.24363 -61.2155 130.547
221 1.99718 10.4529 1.4 10.4602 -62.1701 170.275
222 3.49718 10.4529 1.4 11.7425 -66.3996 -87.378
223 4.99718 10.4529 1.4 13.0713 -61.0445 -119.181
224 6.49718 10.4529 1.4 14.4336 -63.0749 37.7855
225 7.99718 10.4529 1.4 15.8209 -69.1367 -138.497
226 9.49718 10.4529 1.4 17.227 -66.7007 -87.3871
227 10.9972 10.4529 1.4 18.6478 -68.5827 18.3295
228 12.4972 10.4529 1.4 20.0802 -66.1549 -3.17321
229 13.9972 10.4529 1.4 21.5217 -81.9323 -14.4397
230 15.4972 10.4529 1.4 22.9708 -70.5328 -102.628
231 16.9972 10.4529 1.4 24.4259 -72.7033 23.7472
232 18.4972 10.4529 1.4 25.8862 -71.6325 -93.6348
233 19.9972 10.4529 1.4 27.3508 -84.0048 3.36439
234 21.4972 10.4529 1.4 28.8191 -74.6197 170.536
235 22.9972 10.4529 1.4 30.2904 -64.7854 90.213
236 24.4972 10.4529 1.4 31.7645 -61.7263 139.544
237 25.9972 10.4529 1.4 33.2408 -59.2772 -11.6165
238 27.4972 10.4529 1.4 34.7192 -64.0608 -157.426
239 28.9972 10.4529 1.4 36.1994 -64.917 -48.7215
240 30.4972 10.4529 1.4 37.6811 -64.4071 50.6995
241 -28.0028 11.9529 1.4 21.6796 -73.4159 5.27648
242 -26.5028 11.9529 1.4 20.2108 -94.7533 -164.749
243 -25.0028 11.9529 1.4 18.7469 -59.8908 140.889
244 -23.5028 11.9529 1.4 17.2892 -67.905 95.6283
245 -22.0028 11.9529 1.4 15.8395 -69.8213 -41.1367
246 -20.5028 11.9529 1.4 14.4 -61.7017 -16.3025
247 -19.0028 11.9529 1.4 12.9743 -63.7201 -155.216
248 -17.5028 11.9529 1.4 11.5673 -60.2694 98.4208
249 -16.0028 11.9529 1.4 10.1869 -62.7527 127.917
250 -14.5028 11.9529 1.4 8.84559 -69.819 -79.5121
251 -13.0028 11.9529 1.4 7.5641 -55.4086 13.378
252 -11.5028 11.9529 1.4 6.37861 -54.5039 47.5356
253 -10.0028 11.9529 1.4 5.3533 -63.328 146.86
254 -8.50282 11.9529 1.4 4.59661 -58.6496 -103.55
255 -7.00282 11.9529 1.4 4.2544 -42.6344 67.7625
256 -5.50282 11.9529 1.4 4.42391 -55.9627 -153.785
257 -4.00282 11.9529 1.4 5.05392 -46.1363 146.837
258 -2.50282 11.9529 1.4 6.0011 -52.7021 -105.229
259 -1.00282 11.9529 1.4 7.14032 -50.0496 129.97
260 0.49718 11.9529 1.4 8.39377 -55.9748 101.835
261 1.99718 11.9529 1.4 9.71732 -55.4487 -53.2141
262 3.49718 11.9529 1.4 11.0859 -52.3491 -158.737
263 4.99718 11.9529 1.4 12.4847 -56.9826 -135.017
264 6.49718 11.9529 1.4 13.9047 -61.0008 140.957
265 7.99718 11.9529 1.4 15.3398 -62.4621 -102.752
266 9.49718 11.9529 1.4 16.7864 -57.4633 -53.1222
267 10.9972 11.9529 1.4 18.2415 -55.1083 -113.221
268 12.4972 11.9529 1.4 19.7034 -64.6353 76.3346
269 13.9972 11.9529 1.4 21.1706 -62.6661 88.5709
270 15.4972 11.9529 1.4 22.6421 -67.5672 -64.73
271 16.9972 11.9529 1.4 24.1172 -61.1193 -28.5159
272 18.4972 11.9529 1.4 25.5951 -80.8273 92.6578
273 19.9972 11.9529 1.4 27.0754 -62.0654 137.865
274 21.4972 11.9529 1.4 28.5578 -67.8422 8.56832
275 22.9972 11.9529 1.4 30.042 -66.1967 -105.702
276 24.4972 11.9529 1.4 31.5276 -75.4365 155.623
277 25.9972 11.9529 1.4 33.0146 -60.3236 104.046
278 27.4972 11.9529 1.4 34.5027 -68.4455 132.454
279 28.9972 11.9529 1.4 35.9917 -63.4554 -131.831
280 30.4972 11.9529 1.4 37.4817 -63.5474 -101.176
281 -28.0028 13.4529 1.4 21.4363 -66.5474 104.34
282 -26.5028 13.4529 1.4 19.9496 -72.7015 29.8848
283 -25.0028 13.4529 1.4 18.465 -69.8419 4.90397
284 -23.5028 13.4529 1.4 16.9832 -67.0087 -115.044
285 -22.0028 13.4529 1.4 15.5048 -58.6811 175.417
286 -20.5028 13.4529 1.4 14.0311 -61.6334 -83.7228
287 -19.0028 13.4529 1.4 12.5635 -68.8621 -155.144
288 -17.5028 13.4529 1.4 11.1046 -61.4022 -176.836
289 -16.0028 13.4529 1.4 9.65837 -73.0129 88.3768
290 -14.5028 13.4529 1.4 8.23135 -53.743 -166.826
291 -13.0028 13.4529 1.4 6.83566 -62.2299 -111.172
292 -11.5028 13.4529 1.4 5.49521 -59.3377 12.5821
293 -10.0028 13.4529 1.4 4.26244 -55.6696 136.398
294 -8.50282 13.4529 1.4 3.26182 -51.4447 -144.203
295 -7.00282 13.4529 1.4 2.75872 -40.3873 133.543
296 -5.50282 13.4529 1.4 3.01357 -54.2512 87.5761
297 -4.00282 13.4529 1.4 3.87978 -45.366 52.9058
298 -2.50282 13.4529 1.4 5.0521 -46.7482 -164.825
299 -1.00282 13.4529 1.4 6.36355 -55.7014 107.79
300 0.49718 13.4529 1.4 7.74376 -66.6862 -29.1958
301 1.99718 13.4529 1.4 9.16171 -64.7283 107.295
302 3.49718 13.4529 1.4 10.6023 -60.3961 -151.532
303 4.99718 13.4529 1.4 12.0573 -58.4903 -126.17
304 6.49718 13.4529 1.4 13.5222 -52.6451 6.47268
305 7.99718 13.4529 1.4 14.994 -60.8054 -18.8265
306 9.49718 13.4529 1.4 16.471 -65.7424 176.338
307 10.9972 13.4529 1.4 17.9517 -65.388 -101.528
308 12.4972 13.4529 1.4 19.4354 -62.5726 -67.5541
309 13.9972 13.4529 1.4 20.9214 -66.448 99.8657
310 15.4972 13.4529 1.4 22.4093 -65.6689 10.1649
311 16.9972 13.4529 1.4 23.8987 -60.2092 -69.8035
312 18.4972 13.4529 1.4 25.3893 -74.8029 60.4531
313 19.9972 13.4529 1.4 26.881 -75.4769 -35.3385
314 21.4972 13.4529 1.4 28.3736 -91.901 -49.5496
315 22.9972 13.4529 1.4 29.8669 -65.3104 -109.876
316 24.4972 13.4529 1.4 31.3609 -66.215 -169.588
317 25.9972 13.4529 1.4 32.8554 -70.3763 -179.528
318 27.4972 13.4529 1.4 34.3503 -64.3361 174.529
319 28.9972 13.4529 1.4 35.8457 -65.3231 -122.337
320 30.4972 13.4529 1.4 37.3415 -64.6466 110.081
321 -28.0028 14.9529 1.4 21.2962 -63.4809 -80.7683
322 -26.5028 14.9529 1.4 19.7989 -69.3021 103.008
323 -25.0028 14.9529 1.4 18.3021 -65.899 34.8485
324 -23.5028 14.9529 1.4 16.8059 -64.8181 -9.36096
325 -22.0028 14.9529 1.4 15.3105 -69.6331 -143.145
326 -20.5028 14.9529 1.4 13.816 -64.4843 56.0672
327 -19.0028 14.9529 1.4 12.3228 -53.6061 117.488
328 -17.5028 14.9529 1.4 10.8316 -61.7126 -130.862
329 -16.0028 14.9529 1.4 9.34316 -50.5214 37.7867
330 -14.5028 14.9529 1.4 7.85912 -50.4011 46.6063
331 -13.0028 14.9529 1.4 6.38254 -54.5401 -55.693
332 -11.5028 14.9529 1.4 4.92015 -61.0803 179.625
333 -10.0028 14.9529 1.4 3.48984 -41.34 124.332
334 -8.50282 14.9529 1.4 2.15639 -44.1023 124.695
335 -7.00282 14.9529 1.4 1.27323 -39.6839 -88.7355
336 -5.50282 14.9529 1.4 1.75846 -46.4922 -95.5373
337 -4.00282 14.9529 1.4 3.01052 -47.0847 -120.453
338 -2.50282 14.9529 1.4 4.41977 -48.9919 -112.714
339 -1.00282 14.9529 1.4 5.87413 -52.2111 95.5026
340 0.49718 14.9529 1.4 7.34687 -51.5064 -162.801
341 1.99718 14.9529 1.4 8.82879 -58.3683 146.394
342 3.49718 14.9529 1.4 10.3159 -58.4235 40.4952
343 4.99718 14.9529 1.4 11.8063 -54.5864 -76.3834
344 6.49718 14.9529 1.4 13.2989 -58 -162.597
345 7.99718 14.9529 1.4 14.793 -63.2862 69.8759
346 9.49718 14.9529 1.4 16.2881 -61.8291 -71.9808
347 10.9972 14.9529 1.4 17.7841 -72.5559 -104.138
348 12.4972 14.9529 1.4 19.2807 -75.466 -171.527
349 13.9972 14.9529 1.4 20.7778 -77.032 8.39565
350 15.4972 14.9529 1.4 22.2753 -72.4772 38.1019
351 16.9972 14.9529 1.4 23.7731 -73.5907 68.858
352 18.4972 14.9529 1.4 25.2711 -82.8672 -17.2523
353 19.9972 14.9529 1.4 26.7694 -78.7805 178.87
354 21.4972 14.9529 1.4 28.2679 -75.7032 -127.372
355 22.9972 14.9529 1.4 29.7665 -71.24 107.397
356 24.4972 14.9529 1.4 31.2652 -71.4629 -109.998
357 25.9972 14.9529 1.4 32.7641 -86.0427 -72.7773
358 27.4972 14.9529 1.4 34.263 -78.2066 165.982
359 28.9972 14.9529 1.4 35.7621 -94.7998 -56.3549
360 30.4972 14.9529 1.4 37.2612 -81.5002 23.0524
361 -28.0028 16.4529 1.4 21.2612 -72.6651 -127.876
362 -26.5028 16.4529 1.4 19.7613 -74.614 -139.857
363 -25.0028 16.4529 1.4 18.2614 -75.2664 -115.124
364 -23.5028 16.4529 1.4 16.7616 -78.6047 -55.7615
365 -22.0028 16.4529 1.4 15.2617 -63.9194 172.266
366 -20.5028 16.4529 1.4 13.762 -73.2462 25.5066
367 -19.0028 16.4529 1.4 12.2623 -61.3388 -61.6593
368 -17.5028 16.4529 1.4 10.7626 -56.1325 10.2005
369 -16.0028 16.4529 1.4 9.26311 -52.1638 -124.929
370 -14.5028 16.4529 1.4 7.76378 -59.1639 -69.9386
371 -13.0028 16.4529 1.4 6.26477 -49.1873 48.7606
372 -11.5028 16.4529 1.4 4.76639 -48.5649 173.918
373 -10.0028 16.4529 1.4 3.26949 -51.312 -30.2381
374 -8.50282 16.4529 1.4 1.77781 -39.9977 91.5768
375 -7.00282 16.4529 1.4 0.362893 -27.7902 -15.43
376 -5.50282 16.4529 1.4 1.266 -36.2434 -144.82
377 -4.00282 16.4529 1.4 2.75206 -36.0612 128.44
378 -2.50282 16.4529 1.4 4.24793 -50.1916 -17.8359
379 -1.00282 16.4529 1.4 5.74595 -43.3498 -111.072
380 0.49718 16.4529 1.4 7.2448 -47.4571 64.0475
381 1.99718 16.4529 1.4 8.74403 -56.4752 40.9747
382 3.49718 16.4529 1.4 10.2435 -55.7319 123.704
383 4.99718 16.4529 1.4 11.7431 -53.6286 106.854
384 6.49718 16.4529 1.4 13.2428 -56.2096 -108.757
385 7.99718 16.4529 1.4 14.7425 -62.1585 163.706
386 9.49718 16.4529 1.4 16.2423 -58.4018 129.554
387 10.9972 16.4529 1.4 17.7422 -65.5858 21.526
388 12.4972 16.4529 1.4 19.242 -71.012 67.9198
389 13.9972 16.4529 1.4 20.7419 -80.9044 45.733
390 15.4972 16.4529 1.4 22.2418 -73.8567 -99.8341
391 16.9972 16.4529 1.4 23.7417 -78.7563 -89.1739
392 18.4972 16.4529 1.4 25.2416 -78.5504 40.3848
393 19.9972 16.4529 1.4 26.7416 -76.1207 -11.046
394 21.4972 16.4529 1.4 28.2415 -84.3805 -167.809
395 22.9972 16.4529 1.4 29.7414 -87.3722 -67.592
396 24.4972 16.4529 1.4 31.2414 -87.6784 14.6594
397 25.9972 16.4529 1.4 32.7413 -80.5434 -61.1181
398 27.4972 16.4529 1.4 34.2413 -72.4895 -72.2625
399 28.9972 16.4529 1.4 35.7413 -77.5626 -109.018
400 30.4972 16.4529 1.4 37.2412 -76.054 -96.6247
401 -28.0028 17.9529 1.4 21.3318 -96.5331 128.278
402 -26.5028 17.9529 1.4 19.8373 -89.7827 -21.2816
403 -25.0028 17.9529 1.4 18.3436 -77.0847 1.68922
404 -23.5028 17.9529 1.4 16.8511 -79.0776 94.178
405 -22.0028 17.9529 1.4 15.3601 -69.1061 -17.3069
406 -20.5028 17.9529 1.4 13.8709 -55.7307 -125.334
407 -19.0028 17.9529 1.4 12.3844 -52.0755 -15.1814
408 -17.5028 17.9529 1.4 10.9016 -62.1036 108.507
409 -16.0028 17.9529 1.4 9.42422 -59.5099 -100.08
410 -14.5028 17.9529 1.4 7.95531 -54.6648 94.2454
411 -13.0028 17.9529 1.4 6.50061 -49.7955 129.303
412 -11.5028 17.9529 1.4 5.07238 -66.6833 127.103
413 -10.0028 17.9529 1.4 3.70137 -51.1412 -88.9405
414 -8.50282 17.9529 1.4 2.48419 -46.7215 -70.6204
415 -7.00282 17.9529 1.4 1.77265 -39.061 82.6331
416 -5.50282 17.9529 1.4 2.14787 -42.6793 104.075
417 -4.00282 17.9529 1.4 3.25337 -40.5726 93.0333
418 -2.50282 17.9529 1.4 4.58863 -49.7245 73.4309
419 -1.00282 17.9529 1.4 6.00221 -54.6806 -92.1987
420 0.49718 17.9529 1.4 7.44967 -50.0225 -139.369
421 1.99718 17.9529 1.4 8.91452 -52.0512 126.802
422 3.49718 17.9529 1.4 10.3894 -50.4862 147.931
423 4.99718 17.9529 1.4 11.8706 -50.1327 153.398
424 6.49718 17.9529 1.4 13.356 -60.4606 61.7988
425 7.99718 17.9529 1.4 14.8443 -77.2061 104.129
426 9.49718 17.9529 1.4 16.3348 -58.9463 148.343
427 10.9972 17.9529 1.4 17.8268 -65.9606 163.929
428 12.4972 17.9529 1.4 19.3201 -72.626 13.3251
429 13.9972 17.9529 1.4 20.8144 -81.0287 173.27
430 15.4972 17.9529 1.4 22.3094 -81.0395 -121.518
431 16.9972 17.9529 1.4 23.805 -81.3232 -111.728
432 18.4972 17.9529 1.4 25.3012 -78.9973 -114.25
433 19.9972 17.9529 1.4 26.7978 -79.9583 -107.563
434 21.4972 17.9529 1.4 28.2947 -78.173 -78.1358
435 22.9972 17.9529 1.4 29.792 -77.0571 148.963
436 24.4972 17.9529 1.4 31.2895 -80.4871 160.894
437 25.9972 17.9529 1.4 32.7873 -81.4935 -81.9348
438 27.4972 17.9529 1.4 34.2852 -76.9471 16.5346
439 28.9972 17.9529 1.4 35.7833 -72.3918 123.769
440 30.4972 17.9529 1.4 37.2816 -93.0522 -47.7277
441 -28.0028 19.4529 1.4 21.5072 -83.8185 44.3116
442 -26.5028 19.4529 1.4 20.0257 -84.6354 -64.4193
443 -25.0028 19.4529 1.4 18.5472 -83.7336 -110.108
444 -23.5028 19.4529 1.4 17.0725 -74.6082 79.4693
445 -22.0028 19.4529 1.4 15.6026 -98.2117 147.752
446 -20.5028 19.4529 1.4 14.1391 -61.9695 98.9246
447 -19.0028 19.4529 1.4 12.684 -65.1583 95.7443
448 -17.5028 19.4529 1.4 11.2408 -62.7046 -101.355
449 -16.0028 19.4529 1.4 9.8146 -53.2377 56.3463
450 -14.5028 19.4529 1.4 8.41412 -51.3648 -65.3928
451 -13.0028 19.4529 1.4 7.05468 -48.0461 -6.6929
452 -11.5028 19.4529 1.4 5.76538 -48.7509 -68.2455
453 -10.0028 19.4529 1.4 4.60551 -50.9953 75.4868
454 -8.50282 19.4529 1.4 3.69889 -61.0836 13.1343
455 -7.00282 19.4529 1.4 3.26387 -42.1925 100.276
456 -5.50282 19.4529 1.4 3.48195 -41.6424 130.985
457 -4.00282 19.4529 1.4 4.25382 -43.7953 29.7129
458 -2.50282 19.4529 1.4 5.34473 -49.3522 94.6675
459 -1.00282 19.4529 1.4 6.59827 -51.6307 -126.592
460 0.49718 19.4529 1.4 7.93777 -55.1741 178.123
461 1.99718 19.4529 1.4 9.32627 -62.7902 159.324
462 3.49718 19.4529 1.4 10.7448 -72.8814 143.266
463 4.99718 19.4529 1.4 12.1828 -54.9495 -52.3514
464 6.49718 19.4529 1.4 13.6342 -51.844 -60.7168
465 7.99718 19.4529 1.4 15.0952 -54.1105 -73.0262
466 9.49718 19.4529 1.4 16.5631 -65.738 -137.26
467 10.9972 19.4529 1.4 18.0362 -66.1295 60.057
468 12.4972 19.4529 1.4 19.5135 -70.5603 109.26
469 13.9972 19.4529 1.4 20.994 -81.0614 65.2373
470 15.4972 19.4529 1.4 22.4771 -69.0376 -137.361
471 16.9972 19.4529 1.4 23.9623 -73.0334 45.718
472 18.4972 19.4529 1.4 25.4492 -79.1174 17.8571
473 19.9972 19.4529 1.4 26.9376 -88.5611 -153.531
474 21.4972 19.4529 1.4 28.4272 -84.8968 -119.179
475 22.9972 19.4529 1.4 29.9178 -75.0006 -108.345
476 24.4972 19.4529 1.4 31.4093 -76.0779 132.913
477 25.9972 19.4529 1.4 32.9016 -75.4504 29.2684
478 27.4972 19.4529 1.4 34.3946 -105.315 -125.618
479 28.9972 19.4529 1.4 35.8881 -92.2455 -151.845
480 30.4972 19.4529 1.4 37.3822 -77.7115 -55.3078
