#Rx
# X(m), Y(m), Z(m), Distance(m), Power (dBm) Phase (deg)
1 -28.0028 2.95289 1.4 33.5641 -250 0
2 -27.0028 2.95289 1.4 32.5641 -250 0
3 -26.0028 2.95289 1.4 31.5641 -250 0
4 -25.0028 2.95289 1.4 30.5641 -250 0
5 -24.0028 2.95289 1.4 29.5641 -250 0
6 -23.0028 2.95289 1.4 28.5641 -250 0
7 -22.0028 2.95289 1.4 27.5641 -250 0
8 -21.0028 2.95289 1.4 26.5641 -250 0
9 -20.0028 2.95289 1.4 25.5641 -73.1472 -37.3101
10 -19.0028 2.95289 1.4 24.5642 -64.7577 -12.0047
11 -18.0028 2.95289 1.4 23.5642 -71.9177 3.66817
12 -17.0028 2.95289 1.4 22.5642 -61.983 -107.949
13 -16.0028 2.95289 1.4 21.5642 -66.0874 -7.64745
14 -15.0028 2.95289 1.4 20.5642 -61.1926 -32.7679
15 -14.0028 2.95289 1.4 19.5642 -62.5178 86.8467
16 -13.0028 2.95289 1.4 18.5643 -60.534 -172.665
17 -12.0028 2.95289 1.4 17.5643 -59.0807 -126.057
18 -11.0028 2.95289 1.4 16.5643 -68.562 -83.4297
19 -10.0028 2.95289 1.4 15.5643 -75.013 -27.1936
20 -9.00282 2.95289 1.4 14.5644 -61.9148 85.6405
21 -8.00282 2.95289 1.4 13.5644 -63.8834 123.889
22 -7.00282 2.95289 1.4 12.5645 -58.7657 -153.185
23 -6.00282 2.95289 1.4 11.5645 -60.889 -102.616
24 -5.00282 2.95289 1.4 10.5646 -64.0156 -68.4656
25 -4.00282 2.95289 1.4 9.56465 -64.19 67.9306
26 -3.00282 2.95289 1.4 8.56474 -60.6823 -148.07
27 -2.00282 2.95289 1.4 7.56486 -55.7719 -133.604
28 -1.00282 2.95289 1.4 6.56502 -63.4744 -52.2376
29 -0.00282 2.95289 1.4 5.56523 -50.9907 8.75107
30 0.99718 2.95289 1.4 4.56553 -47.6171 158.13
31 1.99718 2.95289 1.4 3.566 -43.634 -161.286
32 2.99718 2.95289 1.4 2.56683 -44.2198 -88.413
33 3.99718 2.95289 1.4 1.56874 -46.2973 72.1945
34 4.99718 2.95289 1.4 0.577276 -30.3414 100.822
35 5.99718 2.95289 1.4 0.453377 -27.6544 100.976
36 6.99718 2.95289 1.4 1.44148 -35.258 35.7792
37 7.99718 2.95289 1.4 2.43929 -46.1824 -61.8751
38 8.99718 2.95289 1.4 3.43838 -40.7907 -89.6818
39 9.99718 2.95289 1.4 4.43788 -52.5512 -172.848
40 10.9972 2.95289 1.4 5.43756 -52.6292 49.0916
41 11.9972 2.95289 1.4 6.43734 -47.5494 25.8395
42 12.9972 2.95289 1.4 7.43718 -58.5016 12.4747
43 13.9972 2.95289 1.4 8.43706 -58.0497 174.72
44 14.9972 2.95289 1.4 9.43696 -52.4199 97.2716
45 15.9972 2.95289 1.4 10.4369 -57.1515 118.734
46 16.9972 2.95289 1.4 11.4368 -67.5016 57.2067
47 17.9972 2.95289 1.4 12.4368 -65.5376 -128.027
48 18.9972 2.95289 1.4 13.4367 -71.518 -131.071
49 19.9972 2.95289 1.4 14.4367 -59.5102 174.717
50 20.9972 2.95289 1.4 15.4366 -70.1708 128.448
51 21.9972 2.95289 1.4 16.4366 -57.7054 16.7831
52 22.9972 2.95289 1.4 17.4366 -58.6802 3.77969
53 23.9972 2.95289 1.4 18.4366 -60.9923 -168.422
54 24.9972 2.95289 1.4 19.4365 -64.184 31.2663
55 25.9972 2.95289 1.4 20.4365 -58.2457 -34.4812
56 26.9972 2.95289 1.4 21.4365 -65.9844 -54.8143
57 27.9972 2.95289 1.4 22.4365 -72.1252 106.708
58 28.9972 2.95289 1.4 23.4365 -73.1441 -23.0014
59 29.9972 2.95289 1.4 24.4365 -70.1297 -69.9242
60 -28.0028 3.95289 1.4 33.5827 -250 0
61 -27.0028 3.95289 1.4 32.5832 -250 0
62 -26.0028 3.95289 1.4 31.5838 -250 0
63 -25.0028 3.95289 1.4 30.5845 -250 0
64 -24.0028 3.95289 1.4 29.5852 -250 0
65 -23.0028 3.95289 1.4 28.5859 -250 0
66 -22.0028 3.95289 1.4 27.5867 -250 0
67 -21.0028 3.95289 1.4 26.5876 -250 0
68 -20.0028 3.95289 1.4 25.5885 -93.1229 -79.3452
69 -19.0028 3.95289 1.4 24.5895 -80.4318 -92.4713
70 -18.0028 3.95289 1.4 23.5906 -84.8688 41.8916
71 -17.0028 3.95289 1.4 22.5918 -62.2433 83.587
72 -16.0028 3.95289 1.4 21.5931 -67.6054 100.099
73 -15.0028 3.95289 1.4 20.5945 -66.4316 -129.232
74 -14.0028 3.95289 1.4 19.5961 -64.4263 -152.468
75 -13.0028 3.95289 1.4 18.5978 -65.8195 -38.9701
76 -12.0028 3.95289 1.4 17.5998 -59.0805 40.9098
77 -11.0028 3.95289 1.4 16.6019 -59.6444 87.6029
78 -10.0028 3.95289 1.4 15.6044 -64.183 164.19
79 -9.00282 3.95289 1.4 14.6071 -66.8756 -99.9166
80 -8.00282 3.95289 1.4 13.6103 -55.6115 -47.3763
81 -7.00282 3.95289 1.4 12.614 -56.2897 16.2034
82 -6.00282 3.95289 1.4 11.6183 -56.0026 65.7897
83 -5.00282 3.95289 1.4 10.6235 -56.1271 122.317
84 -4.00282 3.95289 1.4 9.62965 -52.9028 -172.589
85 -3.00282 3.95289 1.4 8.63727 -53.9765 -24.6214
86 -2.00282 3.95289 1.4 7.64687 -51.8215 2.46514
87 -1.00282 3.95289 1.4 6.65935 -60.9192 61.7983
88 -0.00282 3.95289 1.4 5.6762 -52.3849 125.372
89 0.99718 3.95289 1.4 4.70017 -52.6203 78.8627
90 1.99718 3.95289 1.4 3.73683 -46.4271 4.8288
91 2.99718 3.95289 1.4 2.79932 -42.8291 -17.6852
92 3.99718 3.95289 1.4 1.92575 -44.6767 59.0215
93 4.99718 3.95289 1.4 1.2573 -40.6684 -112.69
94 5.99718 3.95289 1.4 1.20545 -36.6146 36.9326
95 6.99718 3.95289 1.4 1.82357 -40.2971 13.7985
96 7.99718 3.95289 1.4 2.68286 -45.4166 -16.6313
97 8.99718 3.95289 1.4 3.61525 -50.8074 163.231
98 9.99718 3.95289 1.4 4.57628 -48.4347 47.7223
99 10.9972 3.95289 1.4 5.55109 -45.7117 146.826
100 11.9972 3.95289 1.4 6.53352 -45.4909 147.345
101 12.9972 3.95289 1.4 7.52059 -59.4838 111.702
102 13.9972 3.95289 1.4 8.51067 -51.836 -33.6936
103 14.9972 3.95289 1.4 9.50283 -52.9598 -140.889
104 15.9972 3.95289 1.4 10.4965 -46.7899 -172.658
105 16.9972 3.95289 1.4 11.4912 -53.4483 140.119
106 17.9972 3.95289 1.4 12.4868 -60.9416 14.8647
107 18.9972 3.95289 1.4 13.4831 -52.3686 -40.1514
108 19.9972 3.95289 1.4 14.4798 -58.2337 -72.5884
109 20.9972 3.95289 1.4 15.477 -55.9728 -174.964
110 21.9972 3.95289 1.4 16.4745 -51.2829 141.457
111 22.9972 3.95289 1.4 17.4723 -64.7791 46.2854
112 23.9972 3.95289 1.4 18.4704 -60.5467 28.5797
113 24.9972 3.95289 1.4 19.4686 -62.3383 39.6915
114 25.9972 3.95289 1.4 20.467 -63.4899 -36.9114
115 26.9972 3.95289 1.4 21.4656 -69.3986 -110.138
116 27.9972 3.95289 1.4 22.4643 -70.8163 173.732
117 28.9972 3.95289 1.4 23.4631 -68.2134 123.817
118 29.9972 3.95289 1.4 24.462 -69.602 4.89878
119 -28.0028 4.95289 1.4 33.631 -250 0
120 -27.0028 4.95289 1.4 32.633 -250 0
121 -26.0028 4.95289 1.4 31.6352 -250 0
122 -25.0028 4.95289 1.4 30.6375 -118.14 -135.069
123 -24.0028 4.95289 1.4 29.64 -250 0
124 -23.0028 4.95289 1.4 28.6427 -250 0
125 -22.0028 4.95289 1.4 27.6455 -250 0
126 -21.0028 4.95289 1.4 26.6486 -250 0
127 -20.0028 4.95289 1.4 25.6519 -80.7828 157.787
128 -19.0028 4.95289 1.4 24.6555 -98.1416 164.524
129 -18.0028 4.95289 1.4 23.6594 -87.6672 175.036
130 -17.0028 4.95289 1.4 22.6636 -67.269 -169.282
131 -16.0028 4.95289 1.4 21.6682 -60.9314 -149.522
132 -15.0028 4.95289 1.4 20.6732 -67.8697 -83.8341
133 -14.0028 4.95289 1.4 19.6788 -60.2699 27.6872
134 -13.0028 4.95289 1.4 18.6849 -75.0369 40.2424
135 -12.0028 4.95289 1.4 17.6918 -55.291 133.619
136 -11.0028 4.95289 1.4 16.6994 -58.9995 -153.262
137 -10.0028 4.95289 1.4 15.7081 -58.2578 -50.4478
138 -9.00282 4.95289 1.4 14.7179 -56.451 -32.7938
139 -8.00282 4.95289 1.4 13.7291 -61.3763 -22.2525
140 -7.00282 4.95289 1.4 12.7421 -59.8838 118.471
141 -6.00282 4.95289 1.4 11.7573 -56.6534 172.059
142 -5.00282 4.95289 1.4 10.7752 -57.4907 -149.176
143 -4.00282 4.95289 1.4 9.79682 -60.8839 -104.262
144 -3.00282 4.95289 1.4 8.82326 -56.3454 119.534
145 -2.00282 4.95289 1.4 7.85635 -49.6931 91.7028
146 -1.00282 4.95289 1.4 6.89888 -52.6274 46.0048
147 -0.00282 4.95289 1.4 5.95541 -55.6203 -7.70378
148 0.99718 4.95289 1.4 5.0338 -53.3874 -125.32
149 1.99718 4.95289 1.4 4.14867 -48.5207 -29.3185
150 2.99718 4.95289 1.4 3.32923 -47.2273 -74.1767
151 3.99718 4.95289 1.4 2.63744 -42.0395 114.435
152 4.99718 4.95289 1.4 2.19736 -42.8494 -22.9569
153 5.99718 4.95289 1.4 2.16811 -41.8576 87.692
154 6.99718 4.95289 1.4 2.56378 -41.6422 -17.0066
155 7.99718 4.95289 1.4 3.23192 -52.3636 125.521
156 8.99718 4.95289 1.4 4.0395 -44.1675 -24.8218
157 9.99718 4.95289 1.4 4.91832 -49.0037 163.672
158 10.9972 4.95289 1.4 5.83628 -49.6847 54.5727
159 11.9972 4.95289 1.4 6.7775 -52.6561 95.599
160 12.9972 4.95289 1.4 7.73349 -48.993 102.705
161 13.9972 4.95289 1.4 8.69937 -50.2893 149.916
162 14.9972 4.95289 1.4 9.6722 -49.362 -99.1121
163 15.9972 4.95289 1.4 10.6501 -47.6938 -117.58
164 16.9972 4.95289 1.4 11.6317 -65.002 -90.1972
165 17.9972 4.95289 1.4 12.6162 -54.152 76.0561
166 18.9972 4.95289 1.4 13.603 -54.3543 53.8023
167 19.9972 4.95289 1.4 14.5915 -58.118 -51.9125
168 20.9972 4.95289 1.4 15.5816 -52.7879 -85.4755
169 21.9972 4.95289 1.4 16.5728 -61.5134 -121.186
170 22.9972 4.95289 1.4 17.565 -55.0242 94.6255
171 23.9972 4.95289 1.4 18.5581 -53.8158 97.7703
172 24.9972 4.95289 1.4 19.5518 -81.9384 -55.6234
173 25.9972 4.95289 1.4 20.5462 -82.7257 -31.8059
174 26.9972 4.95289 1.4 21.5411 -88.4965 -125.412
175 27.9972 4.95289 1.4 22.5364 -87.4186 102.462
176 28.9972 4.95289 1.4 23.5322 -88.865 151.127
177 29.9972 4.95289 1.4 24.5283 -75.5517 -14.4794
178 -28.0028 5.95289 1.4 33.7089 -250 0
179 -27.0028 5.95289 1.4 32.7133 -117.66 -12.2999
180 -26.0028 5.95289 1.4 31.718 -117.905 -91.7595
181 -25.0028 5.95289 1.4 30.7231 -117.469 -163.872
182 -24.0028 5.95289 1.4 29.7284 -250 0
183 -23.0028 5.95289 1.4 28.7342 -250 0
184 -22.0028 5.95289 1.4 27.7403 -250 0
185 -21.0028 5.95289 1.4 26.7469 -250 0
186 -20.0028 5.95289 1.4 25.754 -96.9538 -133.277
187 -19.0028 5.95289 1.4 24.7617 -86.2565 107.323
188 -18.0028 5.95289 1.4 23.77 -75.7448 80.4366
189 -17.0028 5.95289 1.4 22.7791 -67.4871 -113.436
190 -16.0028 5.95289 1.4 21.7889 -57.4756 -49.8908
191 -15.0028 5.95289 1.4 20.7998 -54.4647 -40.1454
192 -14.0028 5.95289 1.4 19.8117 -65.0325 -90.4317
193 -13.0028 5.95289 1.4 18.8248 -60.333 -142.962
194 -12.0028 5.95289 1.4 17.8395 -55.5276 -168.609
195 -11.0028 5.95289 1.4 16.8558 -54.4859 -93.7899
196 -10.0028 5.95289 1.4 15.8742 -54.6833 36.6923
197 -9.00282 5.95289 1.4 14.8951 -58.2768 59.6658
198 -8.00282 5.95289 1.4 13.9189 -59.8903 113.993
199 -7.00282 5.95289 1.4 12.9464 -55.3299 173.861
200 -6.00282 5.95289 1.4 11.9783 -54.6425 167.589
201 -5.00282 5.95289 1.4 11.016 -59.249 108.658
202 -4.00282 5.95289 1.4 10.0611 -55.4942 26.1844
203 -3.00282 5.95289 1.4 9.11578 -53.3378 17.4318
204 -2.00282 5.95289 1.4 8.18351 -67.4225 67.2071
205 -1.00282 5.95289 1.4 7.26926 -49.6558 91.7373
206 -0.00282 5.95289 1.4 6.38079 -51.8831 -169.477
207 0.99718 5.95289 1.4 5.53053 -60.2953 -61.9739
208 1.99718 5.95289 1.4 4.7391 -50.16 71.2269
209 2.99718 5.95289 1.4 4.04121 -51.236 23.429
210 3.99718 5.95289 1.4 3.49337 -42.0678 90.2368
211 4.99718 5.95289 1.4 3.17426 -42.3092 -9.63504
212 5.99718 5.95289 1.4 3.15408 -42.6827 64.146
213 6.99718 5.95289 1.4 3.4381 -46.1684 -146.313
214 7.99718 5.95289 1.4 3.96142 -48.9727 133.501
215 8.99718 5.95289 1.4 4.64383 -49.368 -79.7587
216 9.99718 5.95289 1.4 5.42563 -51.1159 143.157
217 10.9972 5.95289 1.4 6.26975 -55.4942 82.3443
218 11.9972 5.95289 1.4 7.15416 -43.0296 46.2232
219 12.9972 5.95289 1.4 8.06563 -62.6154 -111.524
220 13.9972 5.95289 1.4 8.99593 -69.0943 -13.1145
221 14.9972 5.95289 1.4 9.93977 -65.6849 -4.9411
222 15.9972 5.95289 1.4 10.8936 -53.902 25.4826
223 16.9972 5.95289 1.4 11.8551 -63.3381 -112.748
224 17.9972 5.95289 1.4 12.8225 -69.3466 -170.737
225 18.9972 5.95289 1.4 13.7945 -61.4925 -92.4739
226 19.9972 5.95289 1.4 14.7703 -57.8131 -82.362
227 20.9972 5.95289 1.4 15.7491 -61.3983 -26.4248
228 21.9972 5.95289 1.4 16.7304 -59.5993 69.4126
229 22.9972 5.95289 1.4 17.7138 -65.9607 120.816
230 23.9972 5.95289 1.4 18.6989 -63.8885 146.286
231 24.9972 5.95289 1.4 19.6856 -64.2087 -40.9607
232 25.9972 5.95289 1.4 20.6735 -68.0334 -22.6418
233 26.9972 5.95289 1.4 21.6626 -72.5499 -123.955
234 27.9972 5.95289 1.4 22.6526 -78.987 124.071
235 28.9972 5.95289 1.4 23.6434 -85.6885 105.85
236 29.9972 5.95289 1.4 24.635 -86.4079 -80.0509
237 -28.0028 6.95289 1.4 33.8162 -118.303 59.8915
238 -27.0028 6.95289 1.4 32.8239 -116.994 -38.192
239 -26.0028 6.95289 1.4 31.8321 -138.698 -76.1105
240 -25.0028 6.95289 1.4 30.8408 -143.112 58.5616
241 -24.0028 6.95289 1.4 29.8501 -250 0
242 -23.0028 6.95289 1.4 28.86 -250 0
243 -22.0028 6.95289 1.4 27.8706 -250 0
244 -21.0028 6.95289 1.4 26.882 -250 0
245 -20.0028 6.95289 1.4 25.8943 -94.3339 -171.242
246 -19.0028 6.95289 1.4 24.9076 -83.7924 161.782
247 -18.0028 6.95289 1.4 23.922 -89.0608 33.7243
248 -17.0028 6.95289 1.4 22.9376 -62.6298 -79.9032
249 -16.0028 6.95289 1.4 21.9546 -60.3246 5.39951
250 -15.0028 6.95289 1.4 20.9733 -58.7542 50.2031
251 -14.0028 6.95289 1.4 19.9937 -68.6377 105.546
252 -13.0028 6.95289 1.4 19.0164 -81.4987 103.021
253 -12.0028 6.95289 1.4 18.0415 -56.6003 -85.4771
254 -11.0028 6.95289 1.4 17.0695 -54.3952 -112.981
255 -10.0028 6.95289 1.4 16.1009 -60.7442 130.836
256 -9.00282 6.95289 1.4 15.1364 -64.0747 137.07
257 -8.00282 6.95289 1.4 14.1769 -61.5545 101.911
258 -7.00282 6.95289 1.4 13.2233 -64.2632 28.9449
259 -6.00282 6.95289 1.4 12.2771 -53.5822 -73.94
260 -5.00282 6.95289 1.4 11.3402 -59.8079 -103.297
261 -4.00282 6.95289 1.4 10.415 -58.6794 99.0122
262 -3.00282 6.95289 1.4 9.505 -58.8163 -19.7226
263 -2.00282 6.95289 1.4 8.61495 -55.0067 68.3471
264 -1.00282 6.95289 1.4 7.75175 -55.3888 67.5138
265 -0.00282 6.95289 1.4 6.92546 -54.5988 72.8429
266 0.99718 6.95289 1.4 6.15096 -84.983 148.7
267 1.99718 6.95289 1.4 5.45038 -62.2976 -55.3679
268 2.99718 6.95289 1.4 4.85581 -54.1536 178.36
269 3.99718 6.95289 1.4 4.41035 -44.1074 -83.979
270 4.99718 6.95289 1.4 4.16215 -43.0366 -41.7442
271 5.99718 6.95289 1.4 4.14678 -48.3085 -23.5826
272 6.99718 6.95289 1.4 4.36671 -46.6266 22.2655
273 7.99718 6.95289 1.4 4.78962 -62.5514 115.495
274 8.99718 6.95289 1.4 5.36775 -51.5761 5.15113
275 9.99718 6.95289 1.4 6.05682 -52.0223 136.62
276 10.9972 6.95289 1.4 6.82329 -47.4235 16.3934
277 11.9972 6.95289 1.4 7.64393 -52.2388 137.47
278 12.9972 6.95289 1.4 8.50305 -50.2196 -22.7902
279 13.9972 6.95289 1.4 9.39011 -49.3995 -54.8079
280 14.9972 6.95289 1.4 10.2979 -77.8229 2.9731
281 15.9972 6.95289 1.4 11.2214 -58.2099 101.311
282 16.9972 6.95289 1.4 12.1569 -70.8624 90.652
283 17.9972 6.95289 1.4 13.102 -62.463 104.428
284 18.9972 6.95289 1.4 14.0547 -67.1651 119.093
285 19.9972 6.95289 1.4 15.0136 -60.2245 -166.935
286 20.9972 6.95289 1.4 15.9775 -64.9731 -134.22
287 21.9972 6.95289 1.4 16.9456 -74.7618 109.865
288 22.9972 6.95289 1.4 17.9172 -70.3567 15.9194
289 23.9972 6.95289 1.4 18.8917 -62.0916 43.2497
290 24.9972 6.95289 1.4 19.8688 -65.5145 -116.734
291 25.9972 6.95289 1.4 20.8481 -72.6858 -145.077
292 26.9972 6.95289 1.4 21.8292 -68.5144 123.556
293 27.9972 6.95289 1.4 22.812 -78.7765 114.81
294 28.9972 6.95289 1.4 23.7962 -91.6874 153.046
295 29.9972 6.95289 1.4 24.7817 -86.3615 -80.1134
296 -28.0028 7.95289 1.4 33.9527 -106.6 -76.9365
297 -27.0028 7.95289 1.4 32.9645 -102.402 10.7225
298 -26.0028 7.95289 1.4 31.977 -133.718 -57.3977
299 -25.0028 7.95289 1.4 30.9904 -145.205 -38.4636
300 -24.0028 7.95289 1.4 30.0046 -250 0
301 -23.0028 7.95289 1.4 29.0198 -250 0
302 -22.0028 7.95289 1.4 28.036 -125.1 -120.186
303 -21.0028 7.95289 1.4 27.0535 -125.792 168.766
304 -20.0028 7.95289 1.4 26.0723 -87.5883 -40.5855
305 -19.0028 7.95289 1.4 25.0925 -82.9244 -43.3653
306 -18.0028 7.95289 1.4 24.1145 -79.9975 28.1313
307 -17.0028 7.95289 1.4 23.1383 -66.3468 -74.4266
308 -16.0028 7.95289 1.4 22.1642 -67.2217 15.72
309 -15.0028 7.95289 1.4 21.1926 -68.7174 -33.6687
310 -14.0028 7.95289 1.4 20.2237 -65.07 166.808
311 -13.0028 7.95289 1.4 19.258 -53.9199 -139.902
312 -12.0028 7.95289 1.4 18.296 -61.1662 -148.131
313 -11.0028 7.95289 1.4 17.3382 -60.2932 117.074
314 -10.0028 7.95289 1.4 16.3856 -57.3538 73.6391
315 -9.00282 7.95289 1.4 15.4389 -64.9655 -110.854
316 -8.00282 7.95289 1.4 14.4993 -60.9258 96.0079
317 -7.00282 7.95289 1.4 13.5685 -58.0081 160.979
318 -6.00282 7.95289 1.4 12.6482 -60.2239 -39.6406
319 -5.00282 7.95289 1.4 11.7409 -62.1684 -146.538
320 -4.00282 7.95289 1.4 10.8499 -59.8473 -58.8802
321 -3.00282 7.95289 1.4 9.97961 -54.1117 46.0436
322 -2.00282 7.95289 1.4 9.13592 -51.9527 -3.35184
323 -1.00282 7.95289 1.4 8.3269 -54.7465 -57.6478
324 -0.00282 7.95289 1.4 7.5637 -56.6836 37.0999
325 0.99718 7.95289 1.4 6.86162 -54.1127 -48.7452
326 1.99718 7.95289 1.4 6.24133 -51.0961 -5.60542
327 2.99718 7.95289 1.4 5.72944 -65.5427 -31.4286
328 3.99718 7.95289 1.4 5.35712 -55.998 157.128
329 4.99718 7.95289 1.4 5.15471 -45.1104 156.713
330 5.99718 7.95289 1.4 5.14231 -49.954 -98.5546
331 6.99718 7.95289 1.4 5.32125 -51.7716 123.463
332 7.99718 7.95289 1.4 5.67345 -54.5077 138.36
333 8.99718 7.95289 1.4 6.1693 -58.7679 177.09
334 9.99718 7.95289 1.4 6.77736 -62.0287 3.78413
335 10.9972 7.95289 1.4 7.47027 -48.6743 -79.4192
336 11.9972 7.95289 1.4 8.22662 -56.885 -153.315
337 12.9972 7.95289 1.4 9.03048 -52.8849 11.585
338 13.9972 7.95289 1.4 9.87025 -63.5918 52.3289
339 14.9972 7.95289 1.4 10.7375 -60.5 -158.96
340 15.9972 7.95289 1.4 11.6261 -64.7192 -117.259
341 16.9972 7.95289 1.4 12.5315 -60.936 17.8576
342 17.9972 7.95289 1.4 13.4503 -74.476 -153.709
343 18.9972 7.95289 1.4 14.38 -70.4473 40.3657
344 19.9972 7.95289 1.4 15.3185 -68.5881 117.725
345 20.9972 7.95289 1.4 16.2643 -67.4388 -161.726
346 21.9972 7.95289 1.4 17.2163 -76.8807 134.499
347 22.9972 7.95289 1.4 18.1734 -68.1663 -30.1646
348 23.9972 7.95289 1.4 19.1349 -66.7546 7.95395
349 24.9972 7.95289 1.4 20.1002 -66.4222 -171.978
350 25.9972 7.95289 1.4 21.0687 -67.246 -151.145
351 26.9972 7.95289 1.4 22.04 -91.5574 -169.539
352 27.9972 7.95289 1.4 23.0138 -83.8952 81.2386
353 28.9972 7.95289 1.4 23.9897 -86.7517 9.1985
354 29.9972 7.95289 1.4 24.9676 -84.3533 86.0451
355 -28.0028 8.95289 1.4 34.1179 -115.232 8.21345
356 -27.0028 8.95289 1.4 33.1346 -105.834 -23.9811
357 -26.0028 8.95289 1.4 32.1524 -101.538 77.689
358 -25.0028 8.95289 1.4 31.1713 -102.71 141.298
359 -24.0028 8.95289 1.4 30.1914 -116.549 -42.2859
360 -23.0028 8.95289 1.4 29.2129 -125.693 -67.2839
361 -22.0028 8.95289 1.4 28.2359 -148.676 -77.1003
362 -21.0028 8.95289 1.4 27.2606 -148.104 2.83731
363 -20.0028 8.95289 1.4 26.2871 -99.7012 109.863
364 -19.0028 8.95289 1.4 25.3157 -83.3978 -179.468
365 -18.0028 8.95289 1.4 24.3466 -83.7756 120.095
366 -17.0028 8.95289 1.4 23.3801 -68.7522 -101.707
367 -16.0028 8.95289 1.4 22.4165 -62.6965 -167.367
368 -15.0028 8.95289 1.4 21.4563 -81.7685 174.051
369 -14.0028 8.95289 1.4 20.4999 -63.2548 113.321
370 -13.0028 8.95289 1.4 19.5478 -62.1751 69.7678
371 -12.0028 8.95289 1.4 18.6008 -64.3534 -93.2226
372 -11.0028 8.95289 1.4 17.6596 -56.8696 -82.1929
373 -10.0028 8.95289 1.4 16.7253 -58.2918 -160.487
374 -9.00282 8.95289 1.4 15.7989 -64.2383 145.318
375 -8.00282 8.95289 1.4 14.8822 -74.929 161.468
376 -7.00282 8.95289 1.4 13.9768 -65.0707 6.2314
377 -6.00282 8.95289 1.4 13.0852 -63.6319 170.234
378 -5.00282 8.95289 1.4 12.2105 -56.4697 -89.7229
379 -4.00282 8.95289 1.4 11.3564 -62.4764 -84.5151
380 -3.00282 8.95289 1.4 10.5281 -57.5834 -136.185
381 -2.00282 8.95289 1.4 9.73204 -51.1544 101.71
382 -1.00282 8.95289 1.4 8.97691 -65.5743 -100.034
383 -0.00282 8.95289 1.4 8.27388 -57.573 -162.904
384 0.99718 8.95289 1.4 7.63737 -57.7359 -145.148
385 1.99718 8.95289 1.4 7.08532 -54.4717 63.6499
386 2.99718 8.95289 1.4 6.63883 -62.4984 7.23262
387 3.99718 8.95289 1.4 6.32031 -47.7442 -11.1729
388 4.99718 8.95289 1.4 6.14969 -45.3322 -177.059
389 5.99718 8.95289 1.4 6.1393 -50.1122 -46.7167
390 6.99718 8.95289 1.4 6.28993 -60.2111 161.071
391 7.99718 8.95289 1.4 6.59057 -53.587 -137.578
392 8.99718 8.95289 1.4 7.02196 -44.2691 85.7665
393 9.99718 8.95289 1.4 7.56176 -63.6479 150.057
394 10.9972 8.95289 1.4 8.18856 -59.6619 -22.011
395 11.9972 8.95289 1.4 8.88396 -58.3159 120.01
396 12.9972 8.95289 1.4 9.63312 -45.8261 38.0215
397 13.9972 8.95289 1.4 10.4245 -61.0998 105.181
398 14.9972 8.95289 1.4 11.2491 -52.5137 -67.1961
399 15.9972 8.95289 1.4 12.1002 -53.4627 148.096
400 16.9972 8.95289 1.4 12.9725 -61.5774 9.63316
401 17.9972 8.95289 1.4 13.8621 -69.7558 162.011
402 18.9972 8.95289 1.4 14.7659 -66.6791 -139.449
403 19.9972 8.95289 1.4 15.6813 -64.502 161.783
404 20.9972 8.95289 1.4 16.6065 -79.4146 153.891
405 21.9972 8.95289 1.4 17.5399 -70.5487 86.1426
406 22.9972 8.95289 1.4 18.4803 -66.3285 -103.465
407 23.9972 8.95289 1.4 19.4266 -65.0079 -116.833
408 24.9972 8.95289 1.4 20.378 -74.8853 69.7447
409 25.9972 8.95289 1.4 21.3339 -85.8079 14.1602
410 26.9972 8.95289 1.4 22.2937 -81.2894 -6.62378
411 27.9972 8.95289 1.4 23.2569 -83.782 -82.315
412 28.9972 8.95289 1.4 24.223 -81.2677 -104.095
413 29.9972 8.95289 1.4 25.1918 -82.3692 -160.368
414 -28.0028 9.95289 1.4 34.3115 -110.248 85.3157
415 -27.0028 9.95289 1.4 33.334 -102.036 -54.6104
416 -26.0028 9.95289 1.4 32.3578 -102.655 19.8421
417 -25.0028 9.95289 1.4 31.3831 -106.829 16.2629
418 -24.0028 9.95289 1.4 30.41 -106.384 154.436
419 -23.0028 9.95289 1.4 29.4388 -104.224 -176.812
420 -22.0028 9.95289 1.4 28.4695 -116.111 -105.987
421 -21.0028 9.95289 1.4 27.5025 -95.535 54.7127
422 -20.0028 9.95289 1.4 26.5379 -84.9689 164.026
423 -19.0028 9.95289 1.4 25.576 -85.1861 54.3472
424 -18.0028 9.95289 1.4 24.6171 -109.114 -30.1986
425 -17.0028 9.95289 1.4 23.6617 -64.0271 88.9173
426 -16.0028 9.95289 1.4 22.7101 -65.4386 114.337
427 -15.0028 9.95289 1.4 21.7628 -68.009 99.6483
428 -14.0028 9.95289 1.4 20.8205 -64.1238 -95.9853
429 -13.0028 9.95289 1.4 19.8838 -60.7658 142.635
430 -12.0028 9.95289 1.4 18.9535 -66.192 57.8212
431 -11.0028 9.95289 1.4 18.0308 -83.5373 -171.784
432 -10.0028 9.95289 1.4 17.1167 -70.073 69.6882
433 -9.00282 9.95289 1.4 16.2128 -67.3116 -67.7992
434 -8.00282 9.95289 1.4 15.3208 -58.2504 -10.6075
435 -7.00282 9.95289 1.4 14.4429 -59.7774 -115.788
436 -6.00282 9.95289 1.4 13.582 -65.85 -177.918
437 -5.00282 9.95289 1.4 12.7414 -56.1262 -138.607
438 -4.00282 9.95289 1.4 11.9254 -60.5435 9.80315
439 -3.00282 9.95289 1.4 11.1395 -57.0104 -105.302
440 -2.00282 9.95289 1.4 10.3904 -77.8051 58.1195
441 -1.00282 9.95289 1.4 9.68671 -63.0082 56.134
442 -0.00282 9.95289 1.4 9.03906 -68.9189 -118.398
443 0.99718 9.95289 1.4 8.46032 -60.5419 -34.3438
444 1.99718 9.95289 1.4 7.96551 -56.9007 30.1976
445 2.99718 9.95289 1.4 7.5711 -65.4936 126.737
446 3.99718 9.95289 1.4 7.29342 -61.0865 -9.86559
447 4.99718 9.95289 1.4 7.14606 -53.1777 23.8188
448 5.99718 9.95289 1.4 7.13712 -55.6625 87.1048
449 6.99718 9.95289 1.4 7.26711 -60.6929 54.6084
450 7.99718 9.95289 1.4 7.52882 -56.0048 11.992
451 8.99718 9.95289 1.4 7.9092 -48.2547 24.6392
452 9.99718 9.95289 1.4 8.39212 -55.6768 -47.3181
453 10.9972 9.95289 1.4 8.96103 -60.3835 -116.025
454 11.9972 9.95289 1.4 9.60064 -52.9572 99.6982
455 12.9972 9.95289 1.4 10.2978 -52.6672 131.28
456 13.9972 9.95289 1.4 11.0416 -51.0683 169.041
457 14.9972 9.95289 1.4 11.8233 -57.4867 -166.63
458 15.9972 9.95289 1.4 12.6357 -54.5657 164.153
459 16.9972 9.95289 1.4 13.4734 -58.3953 121.241
460 17.9972 9.95289 1.4 14.332 -61.7286 -26.9619
461 18.9972 9.95289 1.4 15.2078 -64.9085 33.9777
462 19.9972 9.95289 1.4 16.0982 -75.3682 -120.129
463 20.9972 9.95289 1.4 17.0007 -66.6401 2.9794
464 21.9972 9.95289 1.4 17.9136 -66.8454 82.84
465 22.9972 9.95289 1.4 18.8353 -70.4097 162.793
466 23.9972 9.95289 1.4 19.7646 -79.4732 -173.591
467 24.9972 9.95289 1.4 20.7005 -74.8118 25.7476
468 25.9972 9.95289 1.4 21.6422 -75.37 90.2902
469 26.9972 9.95289 1.4 22.5889 -87.0053 0.838787
470 27.9972 9.95289 1.4 23.5399 -83.7602 -10.3661
471 28.9972 9.95289 1.4 24.4949 -81.8044 -54.2441
472 29.9972 9.95289 1.4 25.4534 -79.2896 166.706
473 -28.0028 10.9529 1.4 34.533 -105.506 116.107
474 -27.0028 10.9529 1.4 33.5619 -103.547 7.65123
475 -26.0028 10.9529 1.4 32.5925 -106.443 170.556
476 -25.0028 10.9529 1.4 31.6251 -102.118 97.6541
477 -24.0028 10.9529 1.4 30.6597 -96.206 78.749
478 -23.0028 10.9529 1.4 29.6966 -99.6707 -156.198
479 -22.0028 10.9529 1.4 28.7361 -101.822 -86.625
480 -21.0028 10.9529 1.4 27.7783 -97.6045 -10.908
481 -20.0028 10.9529 1.4 26.8236 -93.8648 30.5266
482 -19.0028 10.9529 1.4 25.8724 -84.227 100.002
483 -18.0028 10.9529 1.4 24.9249 -84.5551 167.334
484 -17.0028 10.9529 1.4 23.9817 -68.6848 -48.9975
485 -16.0028 10.9529 1.4 23.0433 -78.4294 -128.11
486 -15.0028 10.9529 1.4 22.1104 -65.4181 89.2137
487 -14.0028 10.9529 1.4 21.1835 -67.585 14.2786
488 -13.0028 10.9529 1.4 20.2636 -69.5444 -165.99
489 -12.0028 10.9529 1.4 19.3516 -63.3326 42.5146
490 -11.0028 10.9529 1.4 18.4488 -59.689 -160.96
491 -10.0028 10.9529 1.4 17.5565 -74.6055 -69.3568
492 -9.00282 10.9529 1.4 16.6764 -58.9018 -18.141
493 -8.00282 10.9529 1.4 15.8106 -60.1244 69.6036
494 -7.00282 10.9529 1.4 14.9615 -57.6207 69.0199
495 -6.00282 10.9529 1.4 14.1322 -57.8084 26.8962
496 -5.00282 10.9529 1.4 13.3263 -52.1186 -64.8922
497 -4.00282 10.9529 1.4 12.5484 -50.1158 112.099
498 -3.00282 10.9529 1.4 11.804 -54.3708 140.532
499 -2.00282 10.9529 1.4 11.0999 -52.7906 53.5075
500 -1.00282 10.9529 1.4 10.4441 -63.4527 144.909
501 -0.00282 10.9529 1.4 9.84643 -58.3648 -56.0686
502 0.99718 10.9529 1.4 9.31797 -56.388 -29.6158
503 1.99718 10.9529 1.4 8.87113 -54.1741 -58.5459
504 2.99718 10.9529 1.4 8.51875 -53.9731 -164.825
505 3.99718 10.9529 1.4 8.27294 -56.8995 11.588
506 4.99718 10.9529 1.4 8.14333 -55.4513 -62.0496
507 5.99718 10.9529 1.4 8.13548 -42.8575 42.7115
508 6.99718 10.9529 1.4 8.24975 -48.4929 31.8602
509 7.99718 10.9529 1.4 8.4812 -50.9523 113.191
510 8.99718 10.9529 1.4 8.8206 -55.0688 -171.743
511 9.99718 10.9529 1.4 9.25609 -53.7356 -159.859
512 10.9972 10.9529 1.4 9.77485 -51.4397 67.9618
513 11.9972 10.9529 1.4 10.3644 -56.3733 63.3958
514 12.9972 10.9529 1.4 11.0133 -55.9451 -109.342
515 13.9972 10.9529 1.4 11.7117 -56.6605 21.1514
516 14.9972 10.9529 1.4 12.4514 -48.8181 6.53662
517 15.9972 10.9529 1.4 13.2253 -58.418 -32.7348
518 16.9972 10.9529 1.4 14.0279 -61.812 63.8157
519 17.9972 10.9529 1.4 14.8544 -61.4157 -106.276
520 18.9972 10.9529 1.4 15.7011 -63.3643 158.845
521 19.9972 10.9529 1.4 16.565 -63.2597 149.277
522 20.9972 10.9529 1.4 17.4434 -74.3607 -12.6234
523 21.9972 10.9529 1.4 18.3342 -65.9775 4.60606
524 22.9972 10.9529 1.4 19.2358 -71.2287 14.2408
525 23.9972 10.9529 1.4 20.1467 -69.2697 -110.463
526 24.9972 10.9529 1.4 21.0656 -84.426 96.3685
527 25.9972 10.9529 1.4 21.9916 -74.3036 110.314
528 26.9972 10.9529 1.4 22.9239 -72.323 106.139
529 27.9972 10.9529 1.4 23.8616 -75.4688 -80.7431
530 28.9972 10.9529 1.4 24.8042 -85.951 145.19
531 29.9972 10.9529 1.4 25.7511 -83.8363 155.265
532 -28.0028 11.9529 1.4 34.7818 -96.4237 -129.432
533 -27.0028 11.9529 1.4 33.8179 -97.201 49.7698
534 -26.0028 11.9529 1.4 32.856 -96.7892 9.06977
535 -25.0028 11.9529 1.4 31.8966 -104.787 29.4286
536 -24.0028 11.9529 1.4 30.9397 -77.3382 -52.6832
537 -23.0028 11.9529 1.4 29.9856 -84.6004 147.374
538 -22.0028 11.9529 1.4 29.0346 -78.1876 79.3954
539 -21.0028 11.9529 1.4 28.087 -70.014 115.412
540 -20.0028 11.9529 1.4 27.1432 -80.0461 -147.093
541 -19.0028 11.9529 1.4 26.2036 -73.2437 -20.7123
542 -18.0028 11.9529 1.4 25.2685 -73.4833 -34.3908
543 -17.0028 11.9529 1.4 24.3387 -78.9769 -61.592
544 -16.0028 11.9529 1.4 23.4146 -76.0548 178.108
545 -15.0028 11.9529 1.4 22.497 -80.7988 175.575
546 -14.0028 11.9529 1.4 21.5867 -72.6078 20.0391
547 -13.0028 11.9529 1.4 20.6848 -71.1026 -112.513
548 -12.0028 11.9529 1.4 19.7922 -78.3744 -1.70547
549 -11.0028 11.9529 1.4 18.9104 -65.4928 -61.5138
550 -10.0028 11.9529 1.4 18.041 -73.6718 116.06
551 -9.00282 11.9529 1.4 17.1857 -73.5372 66.5862
552 -8.00282 11.9529 1.4 16.3469 -79.9568 -31.4132
553 -7.00282 11.9529 1.4 15.5272 -68.0475 -44.8985
554 -6.00282 11.9529 1.4 14.7298 -66.0245 -148.183
555 -5.00282 11.9529 1.4 13.9584 -63.9317 -49.7071
556 -4.00282 11.9529 1.4 13.2178 -58.1716 -11.5076
557 -3.00282 11.9529 1.4 12.5133 -69.8372 106.56
558 -2.00282 11.9529 1.4 11.8514 -65.4787 132.564
559 -1.00282 11.9529 1.4 11.2396 -65.0245 156.281
560 -0.00282 11.9529 1.4 10.6864 -63.2745 -139.368
561 0.99718 11.9529 1.4 10.2016 -65.7324 128.275
562 1.99718 11.9529 1.4 9.79512 -62.406 -60.5017
563 2.99718 11.9529 1.4 9.47717 -61.2721 76.3722
564 3.99718 11.9529 1.4 9.25684 -56.4533 -64.6123
565 4.99718 11.9529 1.4 9.14119 -56.6349 115.211
566 5.99718 11.9529 1.4 9.1342 -60.6085 -134.955
567 6.99718 11.9529 1.4 9.23612 -48.6222 -13.7171
568 7.99718 11.9529 1.4 9.44342 -59.9365 144.229
569 8.99718 11.9529 1.4 9.74939 -54.9457 79.649
570 9.99718 11.9529 1.4 10.1451 -54.8446 -68.5442
571 10.9972 11.9529 1.4 10.6205 -62.2331 -59.6333
572 11.9972 11.9529 1.4 11.1655 -59.9153 -178.364
573 12.9972 11.9529 1.4 11.7703 -61.6012 -31.8583
574 13.9972 11.9529 1.4 12.4263 -58.8605 112.221
575 14.9972 11.9529 1.4 13.1257 -57.2031 -72.915
576 15.9972 11.9529 1.4 13.8621 -60.4298 -111.245
577 16.9972 11.9529 1.4 14.6297 -67.2224 -144.238
578 17.9972 11.9529 1.4 15.424 -64.0695 -78.9373
579 18.9972 11.9529 1.4 16.2411 -69.8067 47.7795
580 19.9972 11.9529 1.4 17.0776 -68.6956 157.052
581 20.9972 11.9529 1.4 17.9309 -61.187 -47.124
582 21.9972 11.9529 1.4 18.7987 -64.4742 -133.345
583 22.9972 11.9529 1.4 19.679 -64.8983 131.362
584 23.9972 11.9529 1.4 20.5702 -72.3429 70.7366
585 24.9972 11.9529 1.4 21.4711 -79.3002 -177.873
586 25.9972 11.9529 1.4 22.3803 -98.5512 -75.1852
587 26.9972 11.9529 1.4 23.297 -85.9298 145.571
588 27.9972 11.9529 1.4 24.2203 -70.6315 -62.8015
589 28.9972 11.9529 1.4 25.1495 -88.7493 -19.6647
590 29.9972 11.9529 1.4 26.0839 -91.3976 -20.356
591 -28.0028 12.9529 1.4 35.0574 -100.934 90.398
592 -27.0028 12.9529 1.4 34.1012 -99.1659 136.878
593 -26.0028 12.9529 1.4 33.1477 -88.884 -116.3
594 -25.0028 12.9529 1.4 32.1969 -100.237 -67.6507
595 -24.0028 12.9529 1.4 31.2492 -77.8145 9.22767
596 -23.0028 12.9529 1.4 30.3049 -73.1825 99.1182
597 -22.0028 12.9529 1.4 29.3642 -85.6199 84.5436
598 -21.0028 12.9529 1.4 28.4276 -71.7466 -72.4966
599 -20.0028 12.9529 1.4 27.4955 -75.1362 101.946
600 -19.0028 12.9529 1.4 26.5683 -72.8839 179.736
601 -18.0028 12.9529 1.4 25.6466 -85.5507 -28.7779
602 -17.0028 12.9529 1.4 24.7309 -72.2696 71.8888
603 -16.0028 12.9529 1.4 23.8221 -76.448 144.678
604 -15.0028 12.9529 1.4 22.9208 -84.5312 -171.776
605 -14.0028 12.9529 1.4 22.0281 -69.3101 48.3715
606 -13.0028 12.9529 1.4 21.1449 -77.2488 112.81
607 -12.0028 12.9529 1.4 20.2726 -79.5022 -99.879
608 -11.0028 12.9529 1.4 19.4127 -67.1721 -16.5298
609 -10.0028 12.9529 1.4 18.5668 -73.3401 126.002
610 -9.00282 12.9529 1.4 17.7369 -64.3942 -146.704
611 -8.00282 12.9529 1.4 16.9254 -81.6814 -26.2551
612 -7.00282 12.9529 1.4 16.1351 -64.6327 24.434
613 -6.00282 12.9529 1.4 15.3692 -64.2406 121.554
614 -5.00282 12.9529 1.4 14.6317 -61.4523 103.543
615 -4.00282 12.9529 1.4 13.9269 -70.3548 122.799
616 -3.00282 12.9529 1.4 13.2601 -79.7689 -110.756
617 -2.00282 12.9529 1.4 12.6374 -69.2429 -66.5413
618 -1.00282 12.9529 1.4 12.0655 -60.3391 64.8158
619 -0.00282 12.9529 1.4 11.5519 -78.8775 -88.7505
620 0.99718 12.9529 1.4 11.1049 -62.0482 35.0746
621 1.99718 12.9529 1.4 10.7328 -62.3366 74.353
622 2.99718 12.9529 1.4 10.4434 -64.5326 7.33296
623 3.99718 12.9529 1.4 10.2439 -54.4505 -94.6014
624 4.99718 12.9529 1.4 10.1395 -65.2822 87.0627
625 5.99718 12.9529 1.4 10.1332 -55.5307 -164.294
626 6.99718 12.9529 1.4 10.2251 -54.1776 -99.4841
627 7.99718 12.9529 1.4 10.4128 -65.0121 111.326
628 8.99718 12.9529 1.4 10.691 -53.849 28.6713
629 9.99718 12.9529 1.4 11.0531 -57.8256 -33.011
630 10.9972 12.9529 1.4 11.491 -57.8036 -148.492
631 11.9972 12.9529 1.4 11.9965 -58.2739 -84.3331
632 12.9972 12.9529 1.4 12.5613 -72.2372 -174.296
633 13.9972 12.9529 1.4 13.178 -62.5411 118.696
634 14.9972 12.9529 1.4 13.8395 -60.7748 -86.9483
635 15.9972 12.9529 1.4 14.5397 -70.9858 39.3278
636 16.9972 12.9529 1.4 15.2734 -87.8981 73.9859
637 17.9972 12.9529 1.4 16.0359 -63.061 -95.8656
638 18.9972 12.9529 1.4 16.8232 -76.3728 -122.798
639 19.9972 12.9529 1.4 17.6322 -72.4618 94.1974
640 20.9972 12.9529 1.4 18.4598 -64.8047 110.007
641 21.9972 12.9529 1.4 19.3038 -64.9623 -81.7761
642 22.9972 12.9529 1.4 20.1621 -63.602 -96.2291
643 23.9972 12.9529 1.4 21.0329 -70.8461 1.37638
644 24.9972 12.9529 1.4 21.9147 -79.6406 -160.742
645 25.9972 12.9529 1.4 22.8063 -82.3641 15.6945
646 26.9972 12.9529 1.4 23.7065 -79.8816 131.644
647 27.9972 12.9529 1.4 24.6145 -82.9352 109.976
648 28.9972 12.9529 1.4 25.5293 -83.3913 -164.266
649 29.9972 12.9529 1.4 26.4503 -93.2928 21.8506
650 -28.0028 13.9529 1.4 35.3592 -94.6478 108.78
651 -27.0028 13.9529 1.4 34.4114 -100.832 126.641
652 -26.0028 13.9529 1.4 33.4666 -99.4427 136.185
653 -25.0028 13.9529 1.4 32.5252 -89.6406 8.88333
654 -24.0028 13.9529 1.4 31.5873 -81.8896 -39.6795
655 -23.0028 13.9529 1.4 30.6534 -79.8888 154.391
656 -22.0028 13.9529 1.4 29.7238 -90.5444 -74.4255
657 -21.0028 13.9529 1.4 28.7989 -80.3963 -60.8321
658 -20.0028 13.9529 1.4 27.8792 -74.2142 105.682
659 -19.0028 13.9529 1.4 26.9652 -74.2944 -61.3755
660 -18.0028 13.9529 1.4 26.0575 -81.634 -140.273
661 -17.0028 13.9529 1.4 25.1568 -79.7335 -28.8721
662 -16.0028 13.9529 1.4 24.2639 -80.0323 25.9095
663 -15.0028 13.9529 1.4 23.3797 -74.0326 -140.085
664 -14.0028 13.9529 1.4 22.5052 -70.6053 -165.542
665 -13.0028 13.9529 1.4 21.6415 -71.8956 -73.322
666 -12.0028 13.9529 1.4 20.7901 -73.0356 -141.037
667 -11.0028 13.9529 1.4 19.9524 -81.6988 -142.305
668 -10.0028 13.9529 1.4 19.1304 -76.9652 68.9772
669 -9.00282 13.9529 1.4 18.3261 -76.1109 -131.512
670 -8.00282 13.9529 1.4 17.5419 -63.868 64.5452
671 -7.00282 13.9529 1.4 16.7806 -63.3739 -112.548
672 -6.00282 13.9529 1.4 16.0456 -61.4538 -75.4503
673 -5.00282 13.9529 1.4 15.3406 -67.248 -81.8522
674 -4.00282 13.9529 1.4 14.6699 -62.9983 55.2986
675 -3.00282 13.9529 1.4 14.0384 -66.0992 166.642
676 -2.00282 13.9529 1.4 13.4518 -65.4275 -45.7547
677 -1.00282 13.9529 1.4 12.916 -65.7609 20.3675
678 -0.00282 13.9529 1.4 12.4376 -61.8565 156.539
679 0.99718 13.9529 1.4 12.0236 -63.536 152.228
680 1.99718 13.9529 1.4 11.6807 -67.7909 -168.377
681 2.99718 13.9529 1.4 11.4154 -65.5641 -26.74
682 3.99718 13.9529 1.4 11.2332 -67.0524 150.32
683 4.99718 13.9529 1.4 11.1381 -59.8004 -124.601
684 5.99718 13.9529 1.4 11.1323 -52.1412 28.6435
685 6.99718 13.9529 1.4 11.2161 -54.2017 -128.401
686 7.99718 13.9529 1.4 11.3874 -56.5839 131.147
687 8.99718 13.9529 1.4 11.6424 -51.1456 74.9374
688 9.99718 13.9529 1.4 11.9757 -56.0143 -132.153
689 10.9972 13.9529 1.4 12.381 -58.0956 104.529
690 11.9972 13.9529 1.4 12.8516 -63.2438 -169.288
691 12.9972 13.9529 1.4 13.3804 -62.4337 164.12
692 13.9972 13.9529 1.4 13.9609 -60.5207 36.241
693 14.9972 13.9529 1.4 14.587 -63.6793 143.939
694 15.9972 13.9529 1.4 15.2529 -58.1725 9.83515
695 16.9972 13.9529 1.4 15.9538 -64.9201 166.584
696 17.9972 13.9529 1.4 16.6852 -64.6903 169.875
697 18.9972 13.9529 1.4 17.4433 -66.6583 141.817
698 19.9972 13.9529 1.4 18.2247 -62.1604 -53.9196
699 20.9972 13.9529 1.4 19.0266 -68.6818 148.498
700 21.9972 13.9529 1.4 19.8466 -64.5807 39.2892
701 22.9972 13.9529 1.4 20.6823 -71.7779 -176.114
702 23.9972 13.9529 1.4 21.5321 -78.24 123.172
703 24.9972 13.9529 1.4 22.3943 -74.8493 120.616
704 25.9972 13.9529 1.4 23.2675 -81.9421 -118.798
705 26.9972 13.9529 1.4 24.1505 -88.6413 54.0691
706 27.9972 13.9529 1.4 25.0424 -87.1665 26.1637
707 28.9972 13.9529 1.4 25.9421 -87.75 -41.6172
708 29.9972 13.9529 1.4 26.8489 -92.8308 -60.5466
709 -28.0028 14.9529 1.4 35.6864 -94.1164 78.391
710 -27.0028 14.9529 1.4 34.7475 -96.8823 -77.9357
711 -26.0028 14.9529 1.4 33.8122 -91.5452 -44.4776
712 -25.0028 14.9529 1.4 32.8806 -90.6172 -38.9619
713 -24.0028 14.9529 1.4 31.9532 -70.5782 -162.023
714 -23.0028 14.9529 1.4 31.0303 -88.3591 151.405
715 -22.0028 14.9529 1.4 30.1123 -88.7855 -58.1516
716 -21.0028 14.9529 1.4 29.1997 -90.0195 -53.9561
717 -20.0028 14.9529 1.4 28.293 -104.261 60.3518
718 -19.0028 14.9529 1.4 27.3929 -107.008 155.375
719 -18.0028 14.9529 1.4 26.4998 -114.024 -86.8482
720 -17.0028 14.9529 1.4 25.6147 -88.9615 -145.341
721 -16.0028 14.9529 1.4 24.7383 -93.5692 135.407
722 -15.0028 14.9529 1.4 23.8717 -104.632 -92.9691
723 -14.0028 14.9529 1.4 23.0159 -95.6334 -68.7475
724 -13.0028 14.9529 1.4 22.1721 -98.2551 -92.5881
725 -12.0028 14.9529 1.4 21.3419 -93.0234 -153.458
726 -11.0028 14.9529 1.4 20.5267 -88.8169 -63.1119
727 -10.0028 14.9529 1.4 19.7286 -91.6464 43.9754
728 -9.00282 14.9529 1.4 18.9497 -79.1171 153.361
729 -8.00282 14.9529 1.4 18.1924 -79.3092 -134.08
730 -7.00282 14.9529 1.4 17.4596 -63.5103 26.325
731 -6.00282 14.9529 1.4 16.7544 -67.6698 -5.33175
732 -5.00282 14.9529 1.4 16.0805 -65.8823 -148.318
733 -4.00282 14.9529 1.4 15.4419 -85.1854 22.8186
734 -3.00282 14.9529 1.4 14.8434 -73.0778 -56.0122
735 -2.00282 14.9529 1.4 14.2898 -86.843 -70.1686
736 -1.00282 14.9529 1.4 13.7866 -79.7051 119.645
737 -0.00282 14.9529 1.4 13.3395 -69.2576 154.615
738 0.99718 14.9529 1.4 12.9543 -86.9455 107.236
739 1.99718 14.9529 1.4 12.6367 -66.4707 89.2237
740 2.99718 14.9529 1.4 12.3919 -59.9895 13.297
741 3.99718 14.9529 1.4 12.2242 -57.841 151.6
742 4.99718 14.9529 1.4 12.1369 -62.9333 -27.2448
743 5.99718 14.9529 1.4 12.1316 -53.4105 58.1829
744 6.99718 14.9529 1.4 12.2085 -58.987 -136.671
745 7.99718 14.9529 1.4 12.3661 -65.9182 174.619
746 8.99718 14.9529 1.4 12.6013 -58.3481 -125.593
747 9.99718 14.9529 1.4 12.9099 -56.8637 -17.4693
748 10.9972 14.9529 1.4 13.2868 -55.7652 -30.1016
749 11.9972 14.9529 1.4 13.7263 -63.3534 -122.821
750 12.9972 14.9529 1.4 14.2226 -67.4027 126.004
751 13.9972 14.9529 1.4 14.7701 -64.2846 160.016
752 14.9972 14.9529 1.4 15.3632 -64.0072 156.001
753 15.9972 14.9529 1.4 15.9969 -69.8637 120.719
754 16.9972 14.9529 1.4 16.6665 -70.554 -97.2363
755 17.9972 14.9529 1.4 17.3679 -63.9712 18.1789
756 18.9972 14.9529 1.4 18.0974 -69.108 34.67
757 19.9972 14.9529 1.4 18.8518 -68.6293 -20.8493
758 20.9972 14.9529 1.4 19.6281 -80.2171 84.8985
759 21.9972 14.9529 1.4 20.4238 -78.672 31.0417
760 22.9972 14.9529 1.4 21.2369 -88.481 153.311
761 23.9972 14.9529 1.4 22.0653 -103.958 95.2889
762 24.9972 14.9529 1.4 22.9074 -102.845 -137.496
763 25.9972 14.9529 1.4 23.7618 -85.1631 48.6598
764 26.9972 14.9529 1.4 24.6271 -96.6858 96.6294
765 27.9972 14.9529 1.4 25.5023 -96.0759 78.3131
766 28.9972 14.9529 1.4 26.3863 -107.173 -157.01
767 29.9972 14.9529 1.4 27.2784 -96.1754 -155.819
768 -28.0028 15.9529 1.4 36.0384 -96.4371 10.9531
769 -27.0028 15.9529 1.4 35.1089 -87.3701 -141.772
770 -26.0028 15.9529 1.4 34.1835 -83.5669 142.166
771 -25.0028 15.9529 1.4 33.2623 -88.1383 76.7511
772 -24.0028 15.9529 1.4 32.3459 -73.8399 -106.97
773 -23.0028 15.9529 1.4 31.4345 -81.2596 164.233
774 -22.0028 15.9529 1.4 30.5287 -83.5033 151.366
775 -21.0028 15.9529 1.4 29.6289 -85.6798 172.972
776 -20.0028 15.9529 1.4 28.7358 -109.249 62.8543
777 -19.0028 15.9529 1.4 27.8499 -109.513 72.8495
778 -18.0028 15.9529 1.4 26.972 -112.561 -137.967
779 -17.0028 15.9529 1.4 26.1029 -98.2485 113.468
780 -16.0028 15.9529 1.4 25.2435 -96.1818 154.035
781 -15.0028 15.9529 1.4 24.3948 -123.379 82.528
782 -14.0028 15.9529 1.4 23.558 -101.775 -156.817
783 -13.0028 15.9529 1.4 22.7343 -94.5507 141.515
784 -12.0028 15.9529 1.4 21.9254 -90.6121 121.194
785 -11.0028 15.9529 1.4 21.1328 -105.099 -32.4458
786 -10.0028 15.9529 1.4 20.3585 -77.3719 -110.857
787 -9.00282 15.9529 1.4 19.6046 -83.3745 135.996
788 -8.00282 15.9529 1.4 18.8736 -63.6266 -133.468
789 -7.00282 15.9529 1.4 18.1682 -64.2252 157.345
790 -6.00282 15.9529 1.4 17.4916 -71.5936 44.8381
791 -5.00282 15.9529 1.4 16.8472 -70.4068 74.9611
792 -4.00282 15.9529 1.4 16.2389 -78.6015 160.19
793 -3.00282 15.9529 1.4 15.6708 -69.7831 52.036
794 -2.00282 15.9529 1.4 15.1475 -69.8692 -66.357
795 -1.00282 15.9529 1.4 14.6737 -72.6139 -136.069
796 -0.00282 15.9529 1.4 14.2545 -70.5295 159.788
797 0.99718 15.9529 1.4 13.8947 -65.5203 -145.283
798 1.99718 15.9529 1.4 13.5991 -67.2612 105.343
799 2.99718 15.9529 1.4 13.3719 -63.3772 46.9551
800 3.99718 15.9529 1.4 13.2166 -64.3201 83.3508
801 4.99718 15.9529 1.4 13.1359 -57.7426 -24.1919
802 5.99718 15.9529 1.4 13.131 -63.6503 -143.935
803 6.99718 15.9529 1.4 13.2021 -60.6023 24.8612
804 7.99718 15.9529 1.4 13.348 -58.4237 58.1099
805 8.99718 15.9529 1.4 13.5662 -73.9287 -24.8404
806 9.99718 15.9529 1.4 13.8533 -57.8897 2.78554
807 10.9972 15.9529 1.4 14.2051 -67.5583 168.577
808 11.9972 15.9529 1.4 14.617 -70.0529 52.2893
809 12.9972 15.9529 1.4 15.0841 -62.0122 130.197
810 13.9972 15.9529 1.4 15.6014 -72.5676 -114.17
811 14.9972 15.9529 1.4 16.164 -63.8118 -85.9351
812 15.9972 15.9529 1.4 16.7674 -65.629 55.2901
813 16.9972 15.9529 1.4 17.4074 -70.5742 -56.1297
814 17.9972 15.9529 1.4 18.0801 -65.7676 54.7901
815 18.9972 15.9529 1.4 18.782 -62.2207 160.001
816 19.9972 15.9529 1.4 19.5099 -63.6851 169.137
817 20.9972 15.9529 1.4 20.261 -84.8892 121.478
818 21.9972 15.9529 1.4 21.0328 -86.7994 -49.0438
819 22.9972 15.9529 1.4 21.8232 -84.722 178.693
820 23.9972 15.9529 1.4 22.6302 -94.3211 -62.5217
821 24.9972 15.9529 1.4 23.452 -93.4343 -64.9405
822 25.9972 15.9529 1.4 24.2872 -100.552 79.223
823 26.9972 15.9529 1.4 25.1345 -86.0001 -149.424
824 27.9972 15.9529 1.4 25.9926 -93.4759 -134.853
825 28.9972 15.9529 1.4 26.8605 -98.5508 100.314
826 29.9972 15.9529 1.4 27.7373 -97.5049 -139.334
827 -28.0028 16.9529 1.4 36.4145 -86.9357 46.6791
828 -27.0028 16.9529 1.4 35.4949 -94.2304 -8.45291
829 -26.0028 16.9529 1.4 34.5797 -90.5681 -88.3719
830 -25.0028 16.9529 1.4 33.6694 -95.0863 172.71
831 -24.0028 16.9529 1.4 32.7643 -92.422 27.8527
832 -23.0028 16.9529 1.4 31.8649 -78.3041 23.8617
833 -22.0028 16.9529 1.4 30.9717 -75.2336 -47.3995
834 -21.0028 16.9529 1.4 30.0852 -76.7686 80.3679
835 -20.0028 16.9529 1.4 29.206 -98.3931 -152.567
836 -19.0028 16.9529 1.4 28.3349 -95.1004 34.6705
837 -18.0028 16.9529 1.4 27.4725 -119.396 2.91111
838 -17.0028 16.9529 1.4 26.6197 -96.9097 33.6945
839 -16.0028 16.9529 1.4 25.7775 -94.0309 66.3453
840 -15.0028 16.9529 1.4 24.947 -99.8531 -52.4303
841 -14.0028 16.9529 1.4 24.1293 -97.353 -174.948
842 -13.0028 16.9529 1.4 23.3259 -97.2744 87.4902
843 -12.0028 16.9529 1.4 22.5382 -91.3557 32.1134
844 -11.0028 16.9529 1.4 21.7679 -82.9887 -142.871
845 -10.0028 16.9529 1.4 21.017 -78.8493 58.4953
846 -9.00282 16.9529 1.4 20.2876 -64.8305 37.7735
847 -8.00282 16.9529 1.4 19.5821 -69.1095 55.3942
848 -7.00282 16.9529 1.4 18.9032 -64.4128 -164.819
849 -6.00282 16.9529 1.4 18.2539 -65.4888 -77.5592
850 -5.00282 16.9529 1.4 17.6374 -69.0049 -78.3616
851 -4.00282 16.9529 1.4 17.0572 -66.5278 -94.726
852 -3.00282 16.9529 1.4 16.5173 -65.5467 -127.807
853 -2.00282 16.9529 1.4 16.0216 -68.1097 -14.978
854 -1.00282 16.9529 1.4 15.5745 -93.3813 -104.594
855 -0.00282 16.9529 1.4 15.1802 -64.5079 -36.4107
856 0.99718 16.9529 1.4 14.8428 -67.1491 -124.918
857 1.99718 16.9529 1.4 14.5665 -67.439 62.3095
858 2.99718 16.9529 1.4 14.3546 -63.2646 -158.423
859 3.99718 16.9529 1.4 14.2101 -58.3087 151.369
860 4.99718 16.9529 1.4 14.135 -60.473 66.8153
861 5.99718 16.9529 1.4 14.1305 -59.6886 175.976
862 6.99718 16.9529 1.4 14.1966 -70.8362 149.176
863 7.99718 16.9529 1.4 14.3323 -70.0791 66.0245
864 8.99718 16.9529 1.4 14.5358 -60.2448 -26.3749
865 9.99718 16.9529 1.4 14.8041 -61.2491 68.4737
866 10.9972 16.9529 1.4 15.1338 -66.1288 -36.8366
867 11.9972 16.9529 1.4 15.5211 -67.5445 81.6663
868 12.9972 16.9529 1.4 15.9618 -65.3473 55.9654
869 13.9972 16.9529 1.4 16.4514 -74.8854 -18.2905
870 14.9972 16.9529 1.4 16.9859 -61.4707 23.8562
871 15.9972 16.9529 1.4 17.5612 -60.2423 163.169
872 16.9972 16.9529 1.4 18.1732 -72.8648 113.446
873 17.9972 16.9529 1.4 18.8186 -71.1148 121.849
874 18.9972 16.9529 1.4 19.4939 -64.3443 -132.919
875 19.9972 16.9529 1.4 20.1961 -61.2019 -38.6479
876 20.9972 16.9529 1.4 20.9226 -82.9552 -175.359
877 21.9972 16.9529 1.4 21.6709 -82.277 -48.8251
878 22.9972 16.9529 1.4 22.4388 -92.1445 38.4659
879 23.9972 16.9529 1.4 23.2244 -117.301 72.1015
880 24.9972 16.9529 1.4 24.0259 -102.21 137.209
881 25.9972 16.9529 1.4 24.8419 -100.778 -128.689
882 26.9972 16.9529 1.4 25.6708 -88.5997 -157.26
883 27.9972 16.9529 1.4 26.5115 -89.3203 -129.083
884 28.9972 16.9529 1.4 27.363 -95.8101 -1.13895
885 29.9972 16.9529 1.4 28.2242 -99.2936 -57.3642
886 -28.0028 17.9529 1.4 36.8139 -97.5564 -128.182
887 -27.0028 17.9529 1.4 35.9045 -91.5888 146.819
888 -26.0028 17.9529 1.4 35.0001 -96.8476 35.9664
889 -25.0028 17.9529 1.4 34.101 -111.363 56.0722
890 -24.0028 17.9529 1.4 33.2077 -118.724 -52.887
891 -23.0028 17.9529 1.4 32.3206 -105.396 -110.247
892 -22.0028 17.9529 1.4 31.4403 -104.086 -25.8506
893 -21.0028 17.9529 1.4 30.5674 -103.608 71.0238
894 -20.0028 17.9529 1.4 29.7025 -96.9601 -175.145
895 -19.0028 17.9529 1.4 28.8463 -97.6066 68.1563
896 -18.0028 17.9529 1.4 27.9997 -100.977 103.596
897 -17.0028 17.9529 1.4 27.1635 -92.2741 -54.966
898 -16.0028 17.9529 1.4 26.3387 -99.7603 -64.6279
899 -15.0028 17.9529 1.4 25.5265 -95.6075 -86.1557
900 -14.0028 17.9529 1.4 24.728 -88.6577 -168.505
901 -13.0028 17.9529 1.4 23.9446 -86.9617 66.4303
902 -12.0028 17.9529 1.4 23.178 -92.3965 -99.0023
903 -11.0028 17.9529 1.4 22.4297 -83.878 -3.68177
904 -10.0028 17.9529 1.4 21.7017 -70.1299 -167.619
905 -9.00282 17.9529 1.4 20.9961 -71.0805 179.998
906 -8.00282 17.9529 1.4 20.3152 -74.8079 68.5795
907 -7.00282 17.9529 1.4 19.6616 -64.2004 101.453
908 -6.00282 17.9529 1.4 19.0382 -67.6598 21.8426
909 -5.00282 17.9529 1.4 18.4479 -70.806 100.509
910 -4.00282 17.9529 1.4 17.894 -74.5095 74.9125
911 -3.00282 17.9529 1.4 17.3801 -71.5014 -83.7138
912 -2.00282 17.9529 1.4 16.9098 -74.6808 -154.976
913 -1.00282 17.9529 1.4 16.4867 -70.5291 140.584
914 -0.00282 17.9529 1.4 16.1148 -71.3388 90.3915
915 0.99718 17.9529 1.4 15.7974 -70.2995 -143.523
916 1.99718 17.9529 1.4 15.538 -62.4201 83.4964
917 2.99718 17.9529 1.4 15.3396 -65.5069 68.4415
918 3.99718 17.9529 1.4 15.2044 -67.5605 137.198
919 4.99718 17.9529 1.4 15.1343 -72.2522 81.5333
920 5.99718 17.9529 1.4 15.1301 -70.1842 105.375
921 6.99718 17.9529 1.4 15.1918 -69.5345 -137.064
922 7.99718 17.9529 1.4 15.3187 -59.9741 -91.9724
923 8.99718 17.9529 1.4 15.5092 -55.3415 -167.471
924 9.99718 17.9529 1.4 15.761 -58.4229 66.5029
925 10.9972 17.9529 1.4 16.0711 -70.8119 10.7754
926 11.9972 17.9529 1.4 16.4363 -61.675 -44.0059
927 12.9972 17.9529 1.4 16.853 -55.0677 124.839
928 13.9972 17.9529 1.4 17.3175 -63.9134 -173.002
929 14.9972 17.9529 1.4 17.8261 -71.7486 66.8622
930 15.9972 17.9529 1.4 18.375 -60.9702 -140.656
931 16.9972 17.9529 1.4 18.9609 -59.8491 -16.5195
932 17.9972 17.9529 1.4 19.5803 -74.5565 53.5229
933 18.9972 17.9529 1.4 20.2302 -65.9402 -141.528
934 19.9972 17.9529 1.4 20.9077 -70.2797 53.3795
935 20.9972 17.9529 1.4 21.6103 -84.2753 139.164
936 21.9972 17.9529 1.4 22.3355 -79.268 57.7485
937 22.9972 17.9529 1.4 23.0813 -89.3795 99.6895
938 23.9972 17.9529 1.4 23.8458 -86.4044 -64.5098
939 24.9972 17.9529 1.4 24.6271 -102.327 129.529
940 25.9972 17.9529 1.4 25.4237 -98.1005 -101.865
941 26.9972 17.9529 1.4 26.2343 -84.1704 20.732
942 27.9972 17.9529 1.4 27.0575 -88.2011 -17.9003
943 28.9972 17.9529 1.4 27.8923 -118.466 124.115
944 29.9972 17.9529 1.4 28.7377 -111.584 101.101
945 -28.0028 18.9529 1.4 37.2358 -102.036 -105.85
946 -27.0028 18.9529 1.4 36.337 -250 0
947 -26.0028 18.9529 1.4 35.4437 -250 0
948 -25.0028 18.9529 1.4 34.5561 -154.387 -114.51
949 -24.0028 18.9529 1.4 33.6749 -121.224 -78.1267
950 -23.0028 18.9529 1.4 32.8005 -113.014 -37.0216
951 -22.0028 18.9529 1.4 31.9334 -124.75 -84.7116
952 -21.0028 18.9529 1.4 31.0743 -106.373 -150.005
953 -20.0028 18.9529 1.4 30.2239 -107.709 133.735
954 -19.0028 18.9529 1.4 29.383 -109.636 42.4806
955 -18.0028 18.9529 1.4 28.5523 -94.914 -41.8259
956 -17.0028 18.9529 1.4 27.7327 -86.9528 -97.2145
957 -16.0028 18.9529 1.4 26.9254 -90.5478 144.365
958 -15.0028 18.9529 1.4 26.1314 -95.5143 -50.0676
959 -14.0028 18.9529 1.4 25.3519 -96.9615 94.9789
960 -13.0028 18.9529 1.4 24.5885 -96.3816 -77.9178
961 -12.0028 18.9529 1.4 23.8425 -85.7631 84.5537
962 -11.0028 18.9529 1.4 23.1157 -78.0901 -125.696
963 -10.0028 18.9529 1.4 22.41 -83.3132 142.24
964 -9.00282 18.9529 1.4 21.7274 -86.4942 -156.057
965 -8.00282 18.9529 1.4 21.0702 -71.102 -64.3042
966 -7.00282 18.9529 1.4 20.4408 -75.3455 55.0751
967 -6.00282 18.9529 1.4 19.8418 -72.0168 -51.0958
968 -5.00282 18.9529 1.4 19.2762 -67.589 -149.365
969 -4.00282 18.9529 1.4 18.7468 -76.821 -97.17
970 -3.00282 18.9529 1.4 18.2569 -68.7961 -134.235
971 -2.00282 18.9529 1.4 17.8098 -72.2327 -64.3328
972 -1.00282 18.9529 1.4 17.4086 -65.0186 -84.0271
973 -0.00282 18.9529 1.4 17.0568 -59.9376 29.2204
974 0.99718 18.9529 1.4 16.7572 -62.3108 -98.2052
975 1.99718 18.9529 1.4 16.5129 -66.5345 158.113
976 2.99718 18.9529 1.4 16.3263 -67 -162.097
977 3.99718 18.9529 1.4 16.1994 -68.3119 31.7307
978 4.99718 18.9529 1.4 16.1336 -63.9568 2.98132
979 5.99718 18.9529 1.4 16.1297 -51.6325 87.7428
980 6.99718 18.9529 1.4 16.1876 -56.2129 70.9108
981 7.99718 18.9529 1.4 16.3068 -59.123 12.9253
982 8.99718 18.9529 1.4 16.4859 -53.7969 -118.982
983 9.99718 18.9529 1.4 16.7229 -56.4934 -87.7889
984 10.9972 18.9529 1.4 17.0155 -75.0272 -29.1548
985 11.9972 18.9529 1.4 17.3609 -64.1142 -99.2093
986 12.9972 18.9529 1.4 17.7559 -64.1813 -18.456
987 13.9972 18.9529 1.4 18.1974 -59.6634 60.3126
988 14.9972 18.9529 1.4 18.682 -60.9955 -7.7813
989 15.9972 18.9529 1.4 19.2065 -64.3061 -69.7779
990 16.9972 18.9529 1.4 19.7677 -62.6667 50.6231
991 17.9972 18.9529 1.4 20.3626 -75.4609 -141.986
992 18.9972 18.9529 1.4 20.9882 -77.5832 -78.7418
993 19.9972 18.9529 1.4 21.6421 -71.6619 30.0669
994 20.9972 18.9529 1.4 22.3215 -87.4107 -129.682
995 21.9972 18.9529 1.4 23.0244 -88.5275 174.923
996 22.9972 18.9529 1.4 23.7486 -80.7523 -119.112
997 23.9972 18.9529 1.4 24.4922 -82.5093 -85.3402
998 24.9972 18.9529 1.4 25.2535 -101.034 122.186
999 25.9972 18.9529 1.4 26.031 -85.7557 -120.731
1000 26.9972 18.9529 1.4 26.8232 -92.3121 87.5613
1001 27.9972 18.9529 1.4 27.6289 -92.8056 60.6432
1002 28.9972 18.9529 1.4 28.447 -115.338 157.816
1003 29.9972 18.9529 1.4 29.2763 -109.615 103.947
1004 -28.0028 19.9529 1.4 37.6796 -250 0
1005 -27.0028 19.9529 1.4 36.7917 -250 0
1006 -26.0028 19.9529 1.4 35.9096 -250 0
1007 -25.0028 19.9529 1.4 35.0339 -250 0
1008 -24.0028 19.9529 1.4 34.165 -250 0
1009 -23.0028 19.9529 1.4 33.3034 -144.033 73.4013
1010 -22.0028 19.9529 1.4 32.4498 -126.323 -65.3884
1011 -21.0028 19.9529 1.4 31.6048 -124.779 98.2654
1012 -20.0028 19.9529 1.4 30.769 -123.613 -41.215
1013 -19.0028 19.9529 1.4 29.9434 -107.852 104.043
1014 -18.0028 19.9529 1.4 29.1287 -112.982 32.557
1015 -17.0028 19.9529 1.4 28.3258 -93.291 -102.429
1016 -16.0028 19.9529 1.4 27.5359 -95.2874 69.0277
1017 -15.0028 19.9529 1.4 26.76 -90.0698 -113.222
1018 -14.0028 19.9529 1.4 25.9994 -99.1891 -86.7797
1019 -13.0028 19.9529 1.4 25.2555 -78.9821 -109.989
1020 -12.0028 19.9529 1.4 24.5298 -90.4768 30.664
1021 -11.0028 19.9529 1.4 23.824 -86.0146 -160.507
1022 -10.0028 19.9529 1.4 23.14 -78.8037 -36.0775
1023 -9.00282 19.9529 1.4 22.4795 -79.0445 161.755
1024 -8.00282 19.9529 1.4 21.845 -71.9282 -131.162
1025 -7.00282 19.9529 1.4 21.2385 -87.5756 147.437
1026 -6.00282 19.9529 1.4 20.6627 -77.218 97.4853
1027 -5.00282 19.9529 1.4 20.1201 -66.7376 129.713
1028 -4.00282 19.9529 1.4 19.6135 -82.8851 -21.5128
1029 -3.00282 19.9529 1.4 19.1458 -63.4141 116.197
1030 -2.00282 19.9529 1.4 18.7199 -82.1293 121.693
1031 -1.00282 19.9529 1.4 18.3387 -71.9886 28.7354
1032 -0.00282 19.9529 1.4 18.005 -69.8074 40.4513
1033 0.99718 19.9529 1.4 17.7215 -73.3559 86.1882
1034 1.99718 19.9529 1.4 17.4907 -59.729 57.9193
1035 2.99718 19.9529 1.4 17.3147 -64.1506 -78.9178
1036 3.99718 19.9529 1.4 17.195 -57.1921 -62.9022
1037 4.99718 19.9529 1.4 17.1331 -72.0938 -114.09
1038 5.99718 19.9529 1.4 17.1293 -61.5012 116.473
1039 6.99718 19.9529 1.4 17.1839 -62.0308 -34.2684
1040 7.99718 19.9529 1.4 17.2962 -65.5655 98.3623
1041 8.99718 19.9529 1.4 17.4651 -56.1668 151.199
1042 9.99718 19.9529 1.4 17.6891 -60.4721 120.32
1043 10.9972 19.9529 1.4 17.966 -60.5726 -49.5011
1044 11.9972 19.9529 1.4 18.2934 -60.1786 24.8749
1045 12.9972 19.9529 1.4 18.6687 -63.1281 40.4792
1046 13.9972 19.9529 1.4 19.0891 -66.6557 77.6872
1047 14.9972 19.9529 1.4 19.5516 -63.0314 -122.508
1048 15.9972 19.9529 1.4 20.0534 -70.2466 -99.221
1049 16.9972 19.9529 1.4 20.5915 -64.5276 167.393
1050 17.9972 19.9529 1.4 21.1632 -77.9877 -42.4712
1051 18.9972 19.9529 1.4 21.7659 -69.494 45.7306
1052 19.9972 19.9529 1.4 22.397 -69.8037 -30.5598
1053 20.9972 19.9529 1.4 23.0543 -92.9986 -152.186
1054 21.9972 19.9529 1.4 23.7354 -92.4414 -77.6526
1055 22.9972 19.9529 1.4 24.4386 -78.9008 87.1698
1056 23.9972 19.9529 1.4 25.1618 -84.1098 29.2114
1057 24.9972 19.9529 1.4 25.9034 -88.1984 96.3226
1058 25.9972 19.9529 1.4 26.662 -90.6592 -93.79
1059 26.9972 19.9529 1.4 27.436 -104.751 173.013
1060 27.9972 19.9529 1.4 28.2242 -92.6184 127.823
1061 28.9972 19.9529 1.4 29.0255 -115.16 -154.953
1062 29.9972 19.9529 1.4 29.8387 -112.628 64.0019
