#Rx
# X(m), Y(m), Z(m), Distance(m), Power (dBm) Phase (deg)
1 -28.0028 2.95289 1.4 51.4926 -250 0
2 -27.0028 2.95289 1.4 50.5529 -250 0
3 -26.0028 2.95289 1.4 49.6155 -250 0
4 -25.0028 2.95289 1.4 48.6806 -250 0
5 -24.0028 2.95289 1.4 47.7484 -250 0
6 -23.0028 2.95289 1.4 46.8189 -250 0
7 -22.0028 2.95289 1.4 45.8925 -250 0
8 -21.0028 2.95289 1.4 44.9691 -250 0
9 -20.0028 2.95289 1.4 44.0492 -120.67 -129.076
10 -19.0028 2.95289 1.4 43.1327 -108.704 -149.384
11 -18.0028 2.95289 1.4 42.2201 -113.893 142.489
12 -17.0028 2.95289 1.4 41.3115 -104.617 -35.3024
13 -16.0028 2.95289 1.4 40.4073 -96.7575 27.839
14 -15.0028 2.95289 1.4 39.5076 -84.1124 119.902
15 -14.0028 2.95289 1.4 38.6129 -88.8491 111.414
16 -13.0028 2.95289 1.4 37.7235 -90.577 29.8799
17 -12.0028 2.95289 1.4 36.8397 -94.2638 4.75238
18 -11.0028 2.95289 1.4 35.9621 -84.0398 9.67134
19 -10.0028 2.95289 1.4 35.091 -89.2459 35.3604
20 -9.00282 2.95289 1.4 34.2269 -85.9718 -70.6215
21 -8.00282 2.95289 1.4 33.3704 -92.3107 56.8074
22 -7.00282 2.95289 1.4 32.5221 -91.285 -101.621
23 -6.00282 2.95289 1.4 31.6827 -96.4938 -70.9885
24 -5.00282 2.95289 1.4 30.8529 -106.828 -123.138
25 -4.00282 2.95289 1.4 30.0334 -106.451 157.685
26 -3.00282 2.95289 1.4 29.2251 -93.7323 46.9328
27 -2.00282 2.95289 1.4 28.4291 -95.6654 51.2271
28 -1.00282 2.95289 1.4 27.6463 -92.0495 62.189
29 -0.00282 2.95289 1.4 26.8779 -97.4558 170.529
30 0.99718 2.95289 1.4 26.1252 -69.8109 81.0822
31 1.99718 2.95289 1.4 25.3896 -83.1935 -14.5827
32 2.99718 2.95289 1.4 24.6726 -102.7 79.4894
33 3.99718 2.95289 1.4 23.9759 -64.9177 13.6317
34 4.99718 2.95289 1.4 23.3012 -71.2975 -107.921
35 5.99718 2.95289 1.4 22.6507 -66.4043 -58.0472
36 6.99718 2.95289 1.4 22.0263 -71.6483 15.5204
37 7.99718 2.95289 1.4 21.4304 -71.8264 -53.7977
38 8.99718 2.95289 1.4 20.8654 -75.9189 -71.49
39 9.99718 2.95289 1.4 20.334 -83.8523 -152.012
40 10.9972 2.95289 1.4 19.8387 -64.7333 -7.46916
41 11.9972 2.95289 1.4 19.3825 -63.9705 -6.01192
42 12.9972 2.95289 1.4 18.968 -65.6187 82.1681
43 13.9972 2.95289 1.4 18.5981 -67.7933 141.179
44 14.9972 2.95289 1.4 18.2755 -72.5359 -45.8234
45 15.9972 2.95289 1.4 18.0028 -81.6881 -172.272
46 16.9972 2.95289 1.4 17.7821 -73.506 -100.276
47 17.9972 2.95289 1.4 17.6156 -50.3266 104.625
48 18.9972 2.95289 1.4 17.5047 -53.1622 -22.9606
49 19.9972 2.95289 1.4 17.4505 -56.3646 142.868
50 20.9972 2.95289 1.4 17.4535 -60.3573 109.691
51 21.9972 2.95289 1.4 17.5137 -64.7839 -159.259
52 22.9972 2.95289 1.4 17.6305 -66.0982 -27.4607
53 23.9972 2.95289 1.4 17.8028 -55.013 142.404
54 24.9972 2.95289 1.4 18.0289 -61.7731 -179.065
55 25.9972 2.95289 1.4 18.307 -59.762 -162.837
56 26.9972 2.95289 1.4 18.6347 -70.9714 -146.343
57 27.9972 2.95289 1.4 19.0094 -59.3947 -124.894
58 28.9972 2.95289 1.4 19.4284 -67.8566 87.3472
59 29.9972 2.95289 1.4 19.8889 -62.52 -114.528
60 -28.0028 3.95289 1.4 51.1625 -250 0
61 -27.0028 3.95289 1.4 50.2166 -250 0
62 -26.0028 3.95289 1.4 49.2728 -250 0
63 -25.0028 3.95289 1.4 48.3313 -250 0
64 -24.0028 3.95289 1.4 47.3922 -250 0
65 -23.0028 3.95289 1.4 46.4556 -250 0
66 -22.0028 3.95289 1.4 45.5217 -250 0
67 -21.0028 3.95289 1.4 44.5907 -250 0
68 -20.0028 3.95289 1.4 43.6628 -132.908 167.557
69 -19.0028 3.95289 1.4 42.7381 -127.517 -94.9565
70 -18.0028 3.95289 1.4 41.8168 -118.427 -13.5253
71 -17.0028 3.95289 1.4 40.8993 -98.6493 112.425
72 -16.0028 3.95289 1.4 39.9857 -97.6471 90.4787
73 -15.0028 3.95289 1.4 39.0764 -99.7315 89.5883
74 -14.0028 3.95289 1.4 38.1715 -86.1916 -61.1152
75 -13.0028 3.95289 1.4 37.2716 -93.2105 -53.3287
76 -12.0028 3.95289 1.4 36.3769 -87.3795 -136.535
77 -11.0028 3.95289 1.4 35.4878 -82.6313 -123.942
78 -10.0028 3.95289 1.4 34.6047 -86.3391 -152.666
79 -9.00282 3.95289 1.4 33.7282 -109.183 105.784
80 -8.00282 3.95289 1.4 32.8587 -86.3283 130.805
81 -7.00282 3.95289 1.4 31.9969 -94.9265 -25.5862
82 -6.00282 3.95289 1.4 31.1433 -113.483 121.761
83 -5.00282 3.95289 1.4 30.2987 -93.5451 -146.672
84 -4.00282 3.95289 1.4 29.4638 -109.886 -112.119
85 -3.00282 3.95289 1.4 28.6395 -97.163 -77.5159
86 -2.00282 3.95289 1.4 27.8267 -91.6424 -144.47
87 -1.00282 3.95289 1.4 27.0265 -94.2485 145.713
88 -0.00282 3.95289 1.4 26.2399 -102.226 -167.4
89 0.99718 3.95289 1.4 25.4684 -87.5878 160.523
90 1.99718 3.95289 1.4 24.7132 -71.2509 -60.6265
91 2.99718 3.95289 1.4 23.976 -95.2834 -36.0612
92 3.99718 3.95289 1.4 23.2584 -67.4736 -48.0653
93 4.99718 3.95289 1.4 22.5623 -72.0202 -79.2388
94 5.99718 3.95289 1.4 21.8898 -75.7472 16.7616
95 6.99718 3.95289 1.4 21.2431 -62.4608 -177.753
96 7.99718 3.95289 1.4 20.6246 -70.5764 168.355
97 8.99718 3.95289 1.4 20.0369 -80.1505 94.0986
98 9.99718 3.95289 1.4 19.4829 -84.1004 -87.7702
99 10.9972 3.95289 1.4 18.9654 -78.0132 -45.3828
100 11.9972 3.95289 1.4 18.4876 -64.0863 -128.346
101 12.9972 3.95289 1.4 18.0526 -59.3224 -93.9502
102 13.9972 3.95289 1.4 17.6635 -82.612 176.879
103 14.9972 3.95289 1.4 17.3236 -75.279 -124.135
104 15.9972 3.95289 1.4 17.0356 -70.7156 142.885
105 16.9972 3.95289 1.4 16.8022 -69.6405 -37.6834
106 17.9972 3.95289 1.4 16.6259 -56.0377 113.896
107 18.9972 3.95289 1.4 16.5083 -57.2211 -12.6883
108 19.9972 3.95289 1.4 16.4508 -59.543 147.026
109 20.9972 3.95289 1.4 16.454 -60.7053 39.6778
110 21.9972 3.95289 1.4 16.5178 -81.3943 -175.043
111 22.9972 3.95289 1.4 16.6416 -61.4739 68.6226
112 23.9972 3.95289 1.4 16.824 -56.0844 127.367
113 24.9972 3.95289 1.4 17.0632 -59.175 -33.5779
114 25.9972 3.95289 1.4 17.3568 -99.2586 -157.566
115 26.9972 3.95289 1.4 17.7021 -62.8286 8.47172
116 27.9972 3.95289 1.4 18.0961 -61.7637 -53.6986
117 28.9972 3.95289 1.4 18.5357 -61.1616 84.0679
118 29.9972 3.95289 1.4 19.0178 -67.225 -61.8219
119 -28.0028 4.95289 1.4 50.8499 -250 0
120 -27.0028 4.95289 1.4 49.8981 -250 0
121 -26.0028 4.95289 1.4 48.9481 -250 0
122 -25.0028 4.95289 1.4 48.0003 -250 0
123 -24.0028 4.95289 1.4 47.0545 -250 0
124 -23.0028 4.95289 1.4 46.1111 -250 0
125 -22.0028 4.95289 1.4 45.1701 -250 0
126 -21.0028 4.95289 1.4 44.2317 -250 0
127 -20.0028 4.95289 1.4 43.2961 -143.327 -32.1352
128 -19.0028 4.95289 1.4 42.3634 -134.904 -104.865
129 -18.0028 4.95289 1.4 41.4338 -127.559 -111.246
130 -17.0028 4.95289 1.4 40.5076 -90.2786 -135.146
131 -16.0028 4.95289 1.4 39.5849 -96.8989 -143.605
132 -15.0028 4.95289 1.4 38.6662 -110.958 -9.4283
133 -14.0028 4.95289 1.4 37.7515 -105.449 117.348
134 -13.0028 4.95289 1.4 36.8413 -87.9783 -142.083
135 -12.0028 4.95289 1.4 35.9359 -85.3418 118.472
136 -11.0028 4.95289 1.4 35.0356 -90.2816 143.388
137 -10.0028 4.95289 1.4 34.1408 -91.5479 159.361
138 -9.00282 4.95289 1.4 33.2521 -90.4798 86.0322
139 -8.00282 4.95289 1.4 32.3698 -87.6653 150.408
140 -7.00282 4.95289 1.4 31.4946 -84.1439 33.5708
141 -6.00282 4.95289 1.4 30.627 -90.1359 95.3062
142 -5.00282 4.95289 1.4 29.7678 -102.697 -157.093
143 -4.00282 4.95289 1.4 28.9176 -113.34 19.412
144 -3.00282 4.95289 1.4 28.0772 -85.61 14.5743
145 -2.00282 4.95289 1.4 27.2477 -96.0644 -54.0402
146 -1.00282 4.95289 1.4 26.4299 -98.2319 105.922
147 -0.00282 4.95289 1.4 25.6251 -98.7607 -90.3549
148 0.99718 4.95289 1.4 24.8344 -93.6819 -114.38
149 1.99718 4.95289 1.4 24.0594 -94.5564 79.3774
150 2.99718 4.95289 1.4 23.3015 -70.2803 160.85
151 3.99718 4.95289 1.4 22.5624 -62.5849 -165.536
152 4.99718 4.95289 1.4 21.8442 -63.9356 149.6
153 5.99718 4.95289 1.4 21.1488 -64.1994 90.3419
154 6.99718 4.95289 1.4 20.4787 -68.524 -93.7948
155 7.99718 4.95289 1.4 19.8364 -64.8229 10.537
156 8.99718 4.95289 1.4 19.2247 -68.9601 -48.8769
157 9.99718 4.95289 1.4 18.6465 -87.6878 -134.273
158 10.9972 4.95289 1.4 18.1052 -59.7133 -3.59254
159 11.9972 4.95289 1.4 17.604 -62.1446 107.087
160 12.9972 4.95289 1.4 17.1466 -67.244 64.9564
161 13.9972 4.95289 1.4 16.7365 -65.9445 -77.7141
162 14.9972 4.95289 1.4 16.3773 -83.9271 8.59897
163 15.9972 4.95289 1.4 16.0724 -69.7711 78.5269
164 16.9972 4.95289 1.4 15.8248 -77.8494 -10.3122
165 17.9972 4.95289 1.4 15.6375 -53.9305 -65.8993
166 18.9972 4.95289 1.4 15.5124 -56.7763 -21.809
167 19.9972 4.95289 1.4 15.4512 -54.7435 -44.6995
168 20.9972 4.95289 1.4 15.4546 -58.1153 0.97754
169 21.9972 4.95289 1.4 15.5226 -60.273 -58.1826
170 22.9972 4.95289 1.4 15.6542 -65.2595 -52.3168
171 23.9972 4.95289 1.4 15.848 -54.7396 160.35
172 24.9972 4.95289 1.4 16.1017 -65.6106 178.148
173 25.9972 4.95289 1.4 16.4125 -76.8933 52.6649
174 26.9972 4.95289 1.4 16.7772 -61.37 -75.3921
175 27.9972 4.95289 1.4 17.1924 -59.9993 -56.3839
176 28.9972 4.95289 1.4 17.6545 -63.8616 149.021
177 29.9972 4.95289 1.4 18.1601 -66.3987 173.994
178 -28.0028 5.95289 1.4 50.5551 -250 0
179 -27.0028 5.95289 1.4 49.5976 -250 0
180 -26.0028 5.95289 1.4 48.6419 -250 0
181 -25.0028 5.95289 1.4 47.6879 -250 0
182 -24.0028 5.95289 1.4 46.7359 -250 0
183 -23.0028 5.95289 1.4 45.7859 -250 0
184 -22.0028 5.95289 1.4 44.838 -250 0
185 -21.0028 5.95289 1.4 43.8925 -250 0
186 -20.0028 5.95289 1.4 42.9495 -128.182 -156.995
187 -19.0028 5.95289 1.4 42.0091 -121.161 135.554
188 -18.0028 5.95289 1.4 41.0715 -147.645 38.208
189 -17.0028 5.95289 1.4 40.1369 -97.2817 -21.8446
190 -16.0028 5.95289 1.4 39.2056 -102.042 142.912
191 -15.0028 5.95289 1.4 38.2777 -98.3417 -26.2649
192 -14.0028 5.95289 1.4 37.3536 -105.362 81.1477
193 -13.0028 5.95289 1.4 36.4334 -87.8014 -55.4361
194 -12.0028 5.95289 1.4 35.5176 -79.3663 19.3854
195 -11.0028 5.95289 1.4 34.6064 -86.7858 -1.53588
196 -10.0028 5.95289 1.4 33.7003 -87.7048 -9.17793
197 -9.00282 5.95289 1.4 32.7996 -92.4597 -16.659
198 -8.00282 5.95289 1.4 31.9048 -92.9266 -86.6113
199 -7.00282 5.95289 1.4 31.0165 -84.7106 -25.2117
200 -6.00282 5.95289 1.4 30.1351 -83.0924 -115.003
201 -5.00282 5.95289 1.4 29.2614 -91.4476 -78.6536
202 -4.00282 5.95289 1.4 28.3961 -123.085 -18.4535
203 -3.00282 5.95289 1.4 27.5398 -84.6114 -106.811
204 -2.00282 5.95289 1.4 26.6935 -86.8299 -94.477
205 -1.00282 5.95289 1.4 25.8583 -91.5813 147.94
206 -0.00282 5.95289 1.4 25.0351 -100.954 -34.4143
207 0.99718 5.95289 1.4 24.2252 -85.6368 55.4627
208 1.99718 5.95289 1.4 23.43 -103.643 9.58373
209 2.99718 5.95289 1.4 22.651 -87.0228 20.4191
210 3.99718 5.95289 1.4 21.89 -67.0343 15.1508
211 4.99718 5.95289 1.4 21.149 -65.3292 27.5175
212 5.99718 5.95289 1.4 20.43 -69.7597 -8.4375
213 6.99718 5.95289 1.4 19.7355 -60.425 -56.5425
214 7.99718 5.95289 1.4 19.0681 -66.7826 65.8364
215 8.99718 5.95289 1.4 18.4309 -65.0024 -162.551
216 9.99718 5.95289 1.4 17.827 -70.3025 134.434
217 10.9972 5.95289 1.4 17.26 -57.0364 -69.1298
218 11.9972 5.95289 1.4 16.7336 -61.9653 164.082
219 12.9972 5.95289 1.4 16.2517 -62.5448 57.65
220 13.9972 5.95289 1.4 15.8184 -73.3377 160.639
221 14.9972 5.95289 1.4 15.4378 -72.1573 -113.075
222 15.9972 5.95289 1.4 15.1139 -88.5204 146.476
223 16.9972 5.95289 1.4 14.8505 -62.5142 -153.597
224 17.9972 5.95289 1.4 14.6506 -58.7324 -86.7193
225 18.9972 5.95289 1.4 14.5171 -62.8421 64.5923
226 19.9972 5.95289 1.4 14.4517 -61.4289 15.4592
227 20.9972 5.95289 1.4 14.4553 -59.1362 40.42
228 21.9972 5.95289 1.4 14.5279 -57.0833 -117.001
229 22.9972 5.95289 1.4 14.6685 -62.3607 -56.2497
230 23.9972 5.95289 1.4 14.8751 -62.1381 92.0942
231 24.9972 5.95289 1.4 15.1451 -60.3616 -95.6966
232 25.9972 5.95289 1.4 15.4751 -63.8735 138.746
233 26.9972 5.95289 1.4 15.8614 -56.5682 11.5256
234 27.9972 5.95289 1.4 16.3 -68.0145 21.4042
235 28.9972 5.95289 1.4 16.7867 -66.2146 27.5098
236 29.9972 5.95289 1.4 17.3176 -68.4758 23.0582
237 -28.0028 6.95289 1.4 50.2785 -250 0
238 -27.0028 6.95289 1.4 49.3157 -250 0
239 -26.0028 6.95289 1.4 48.3543 -250 0
240 -25.0028 6.95289 1.4 47.3946 -250 0
241 -24.0028 6.95289 1.4 46.4365 -250 0
242 -23.0028 6.95289 1.4 45.4803 -250 0
243 -22.0028 6.95289 1.4 44.526 -250 0
244 -21.0028 6.95289 1.4 43.5737 -250 0
245 -20.0028 6.95289 1.4 42.6236 -125.943 -109.714
246 -19.0028 6.95289 1.4 41.6758 -121.653 -97.5336
247 -18.0028 6.95289 1.4 40.7306 -122.827 -106.434
248 -17.0028 6.95289 1.4 39.788 -105.489 -63.6723
249 -16.0028 6.95289 1.4 38.8483 -117.957 -93.141
250 -15.0028 6.95289 1.4 37.9117 -99.5509 28.7144
251 -14.0028 6.95289 1.4 36.9784 -104.236 -105.926
252 -13.0028 6.95289 1.4 36.0486 -85.2266 -148.382
253 -12.0028 6.95289 1.4 35.1228 -76.3356 154.582
254 -11.0028 6.95289 1.4 34.2011 -77.8075 -168.731
255 -10.0028 6.95289 1.4 33.2839 -89.9407 -131.087
256 -9.00282 6.95289 1.4 32.3716 -87.3288 -175.919
257 -8.00282 6.95289 1.4 31.4647 -92.999 178.92
258 -7.00282 6.95289 1.4 30.5636 -90.3106 115.086
259 -6.00282 6.95289 1.4 29.6688 -86.5177 -149.614
260 -5.00282 6.95289 1.4 28.7809 -86.2231 89.6498
261 -4.00282 6.95289 1.4 27.9007 -97.7829 156.388
262 -3.00282 6.95289 1.4 27.0287 -89.5036 -116.033
263 -2.00282 6.95289 1.4 26.1659 -84.4477 99.267
264 -1.00282 6.95289 1.4 25.3133 -83.8676 161.06
265 -0.00282 6.95289 1.4 24.4717 -94.063 -91.1487
266 0.99718 6.95289 1.4 23.6426 -81.8065 64.1433
267 1.99718 6.95289 1.4 22.8271 -78.7981 -65.9384
268 2.99718 6.95289 1.4 22.0268 -89.927 -85.8103
269 3.99718 6.95289 1.4 21.2435 -67.1265 105.21
270 4.99718 6.95289 1.4 20.479 -67.2122 -161.372
271 5.99718 6.95289 1.4 19.7356 -64.338 -124.7
272 6.99718 6.95289 1.4 19.0158 -69.7158 -158.825
273 7.99718 6.95289 1.4 18.3222 -64.1289 150.983
274 8.99718 6.95289 1.4 17.6581 -63.3489 -91.3625
275 9.99718 6.95289 1.4 17.0268 -66.3865 3.01898
276 10.9972 6.95289 1.4 16.4322 -67.2316 42.7862
277 11.9972 6.95289 1.4 15.8784 -66.8163 -158.979
278 12.9972 6.95289 1.4 15.3697 -68.8488 -94.1247
279 13.9972 6.95289 1.4 14.9108 -62.0113 -133.802
280 14.9972 6.95289 1.4 14.5065 -66.4063 -167.255
281 15.9972 6.95289 1.4 14.1613 -69.6155 -100.525
282 16.9972 6.95289 1.4 13.8797 -64.7736 -130.279
283 17.9972 6.95289 1.4 13.6657 -58.492 68.8109
284 18.9972 6.95289 1.4 13.5224 -51.313 84.5976
285 19.9972 6.95289 1.4 13.4522 -55.793 -171.548
286 20.9972 6.95289 1.4 13.4561 -55.9391 165.617
287 21.9972 6.95289 1.4 13.5341 -67.1333 20.1861
288 22.9972 6.95289 1.4 13.6849 -54.7405 -85.0302
289 23.9972 6.95289 1.4 13.9061 -64.2314 -127.643
290 24.9972 6.95289 1.4 14.1945 -62.6041 -6.97984
291 25.9972 6.95289 1.4 14.5461 -57.0699 -139.381
292 26.9972 6.95289 1.4 14.9564 -68.9498 21.3098
293 27.9972 6.95289 1.4 15.4207 -78.0639 -91.0848
294 28.9972 6.95289 1.4 15.9344 -80.3395 68.1938
295 29.9972 6.95289 1.4 16.4927 -68.0048 -102.604
296 -28.0028 7.95289 1.4 50.0204 -250 0
297 -27.0028 7.95289 1.4 49.0525 -250 0
298 -26.0028 7.95289 1.4 48.0859 -250 0
299 -25.0028 7.95289 1.4 47.1207 -250 0
300 -24.0028 7.95289 1.4 46.1569 -250 0
301 -23.0028 7.95289 1.4 45.1948 -250 0
302 -22.0028 7.95289 1.4 44.2343 -250 0
303 -21.0028 7.95289 1.4 43.2756 -250 0
304 -20.0028 7.95289 1.4 42.3188 -144.833 9.75248
305 -19.0028 7.95289 1.4 41.3641 -171.692 168.127
306 -18.0028 7.95289 1.4 40.4115 -149.457 -155.378
307 -17.0028 7.95289 1.4 39.4613 -120.826 -74.4222
308 -16.0028 7.95289 1.4 38.5136 -109.506 90.8507
309 -15.0028 7.95289 1.4 37.5687 -108.912 128.976
310 -14.0028 7.95289 1.4 36.6266 -114.24 -137.411
311 -13.0028 7.95289 1.4 35.6877 -93.2188 -31.7079
312 -12.0028 7.95289 1.4 34.7522 -89.3624 -44.5613
313 -11.0028 7.95289 1.4 33.8205 -85.4027 -95.2473
314 -10.0028 7.95289 1.4 32.8927 -89.9014 39.0778
315 -9.00282 7.95289 1.4 31.9693 -90.2966 -107.375
316 -8.00282 7.95289 1.4 31.0506 -83.9353 57.6814
317 -7.00282 7.95289 1.4 30.1371 -91.9493 24.9213
318 -6.00282 7.95289 1.4 29.2292 -90.7199 -3.11216
319 -5.00282 7.95289 1.4 28.3276 -86.5637 74.7357
320 -4.00282 7.95289 1.4 27.4328 -90.6134 -36.8636
321 -3.00282 7.95289 1.4 26.5455 -88.7568 -172.082
322 -2.00282 7.95289 1.4 25.6664 -90.7992 58.0098
323 -1.00282 7.95289 1.4 24.7966 -80.1531 -10.5073
324 -0.00282 7.95289 1.4 23.9369 -81.8865 1.34039
325 0.99718 7.95289 1.4 23.0885 -95.6641 177.787
326 1.99718 7.95289 1.4 22.2528 -79.1681 -84.1947
327 2.99718 7.95289 1.4 21.4311 -76.3412 142.008
328 3.99718 7.95289 1.4 20.6251 -70.5406 147.549
329 4.99718 7.95289 1.4 19.8368 -71.978 -72.5227
330 5.99718 7.95289 1.4 19.0684 -65.4658 40.244
331 6.99718 7.95289 1.4 18.3224 -64.4592 97.666
332 7.99718 7.95289 1.4 17.6015 -66.6939 101.931
333 8.99718 7.95289 1.4 16.9091 -75.5473 13.8341
334 9.99718 7.95289 1.4 16.2488 -64.4616 138.226
335 10.9972 7.95289 1.4 15.6246 -63.7138 91.4395
336 11.9972 7.95289 1.4 15.0411 -65.3971 62.3855
337 12.9972 7.95289 1.4 14.503 -73.4484 170.561
338 13.9972 7.95289 1.4 14.0158 -66.9516 -11.7323
339 14.9972 7.95289 1.4 13.5848 -60.311 64.6504
340 15.9972 7.95289 1.4 13.2156 -81.8673 122.433
341 16.9972 7.95289 1.4 12.9135 -76.9623 -141.115
342 17.9972 7.95289 1.4 12.6831 -56.0288 19.6346
343 18.9972 7.95289 1.4 12.5286 -60.5869 85.419
344 19.9972 7.95289 1.4 12.4528 -50.2433 -152.5
345 20.9972 7.95289 1.4 12.457 -57.0047 128.26
346 21.9972 7.95289 1.4 12.5412 -54.4112 27.6513
347 22.9972 7.95289 1.4 12.7038 -67.5146 -144.23
348 23.9972 7.95289 1.4 12.9418 -61.0298 31.8789
349 24.9972 7.95289 1.4 13.2512 -60.8678 74.0893
350 25.9972 7.95289 1.4 13.6272 -61.8953 -124.846
351 26.9972 7.95289 1.4 14.0643 -70.5293 136.182
352 27.9972 7.95289 1.4 14.5571 -57.9671 -70.3788
353 28.9972 7.95289 1.4 15.1002 -76.223 -151.613
354 29.9972 7.95289 1.4 15.6882 -67.4468 -34.3618
355 -28.0028 8.95289 1.4 49.7811 -131.513 -80.4988
356 -27.0028 8.95289 1.4 48.8084 -128.671 101.286
357 -26.0028 8.95289 1.4 47.8368 -137.495 149.712
358 -25.0028 8.95289 1.4 46.8665 -132.703 -173.229
359 -24.0028 8.95289 1.4 45.8974 -250 0
360 -23.0028 8.95289 1.4 44.9297 -250 0
361 -22.0028 8.95289 1.4 43.9634 -250 0
362 -21.0028 8.95289 1.4 42.9987 -250 0
363 -20.0028 8.95289 1.4 42.0356 -250 0
364 -19.0028 8.95289 1.4 41.0743 -250 0
365 -18.0028 8.95289 1.4 40.1148 -250 0
366 -17.0028 8.95289 1.4 39.1574 -117.541 160.89
367 -16.0028 8.95289 1.4 38.2022 -117.844 71.9521
368 -15.0028 8.95289 1.4 37.2494 -112.195 -132.656
369 -14.0028 8.95289 1.4 36.299 -121.566 -149.433
370 -13.0028 8.95289 1.4 35.3514 -104.431 -101.128
371 -12.0028 8.95289 1.4 34.4068 -94.7008 174.873
372 -11.0028 8.95289 1.4 33.4654 -94.22 168.325
373 -10.0028 8.95289 1.4 32.5275 -97.7893 62.4945
374 -9.00282 8.95289 1.4 31.5934 -84.3294 -66.7735
375 -8.00282 8.95289 1.4 30.6635 -83.7432 -26.753
376 -7.00282 8.95289 1.4 29.7381 -86.0343 -104.141
377 -6.00282 8.95289 1.4 28.8177 -106.55 -170.759
378 -5.00282 8.95289 1.4 27.9027 -94.8259 -137.363
379 -4.00282 8.95289 1.4 26.9938 -86.0477 -54.2033
380 -3.00282 8.95289 1.4 26.0916 -84.1644 -104.841
381 -2.00282 8.95289 1.4 25.1968 -91.3108 -163.433
382 -1.00282 8.95289 1.4 24.3101 -95.7948 -88.7716
383 -0.00282 8.95289 1.4 23.4326 -76.8515 -174.241
384 0.99718 8.95289 1.4 22.5653 -81.8824 -83.5921
385 1.99718 8.95289 1.4 21.7094 -82.7955 121.877
386 2.99718 8.95289 1.4 20.8663 -74.7196 155.939
387 3.99718 8.95289 1.4 20.0376 -69.4073 -16.849
388 4.99718 8.95289 1.4 19.2253 -67.3121 -80.8005
389 5.99718 8.95289 1.4 18.4314 -71.1272 82.5948
390 6.99718 8.95289 1.4 17.6584 -69.6143 -121.564
391 7.99718 8.95289 1.4 16.9093 -65.1837 -36.9254
392 8.99718 8.95289 1.4 16.1873 -69.2877 -52.9755
393 9.99718 8.95289 1.4 15.4963 -67.3526 -101.668
394 10.9972 8.95289 1.4 14.8405 -60.8699 -84.3483
395 11.9972 8.95289 1.4 14.2248 -65.9136 -114.047
396 12.9972 8.95289 1.4 13.6546 -74.0627 179.652
397 13.9972 8.95289 1.4 13.136 -58.3521 -82.7428
398 14.9972 8.95289 1.4 12.6751 -53.0086 -71.2623
399 15.9972 8.95289 1.4 12.2786 -65.4614 126.752
400 16.9972 8.95289 1.4 11.9527 -55.9041 148.928
401 17.9972 8.95289 1.4 11.7035 -61.248 22.1395
402 18.9972 8.95289 1.4 11.5359 -55.8489 88.0964
403 19.9972 8.95289 1.4 11.4535 -52.2172 -137.184
404 20.9972 8.95289 1.4 11.4581 -55.9035 175.594
405 21.9972 8.95289 1.4 11.5495 -57.938 7.18952
406 22.9972 8.95289 1.4 11.7259 -58.8703 -143.792
407 23.9972 8.95289 1.4 11.9834 -66.9792 107.603
408 24.9972 8.95289 1.4 12.3169 -62.9462 128.466
409 25.9972 8.95289 1.4 12.7205 -66.7953 -149.996
410 26.9972 8.95289 1.4 13.1877 -73.3244 35.8707
411 27.9972 8.95289 1.4 13.7121 -70.9661 134.126
412 28.9972 8.95289 1.4 14.2872 -57.194 114.273
413 29.9972 8.95289 1.4 14.9074 -74.4799 160.635
414 -28.0028 9.95289 1.4 49.5607 -111.823 -37.9373
415 -27.0028 9.95289 1.4 48.5836 -124.126 -5.5144
416 -26.0028 9.95289 1.4 47.6075 -127.319 -72.948
417 -25.0028 9.95289 1.4 46.6324 -132.225 -55.3601
418 -24.0028 9.95289 1.4 45.6583 -105.249 -142.947
419 -23.0028 9.95289 1.4 44.6854 -127.786 70.3142
420 -22.0028 9.95289 1.4 43.7138 -124.507 -172.152
421 -21.0028 9.95289 1.4 42.7434 -128.907 -169.85
422 -20.0028 9.95289 1.4 41.7744 -110.603 41.4295
423 -19.0028 9.95289 1.4 40.8069 -130.125 -100.765
424 -18.0028 9.95289 1.4 39.8411 -138.985 95.078
425 -17.0028 9.95289 1.4 38.8769 -113.844 -49.7629
426 -16.0028 9.95289 1.4 37.9147 -106.4 118.38
427 -15.0028 9.95289 1.4 36.9544 -122.305 130.602
428 -14.0028 9.95289 1.4 35.9963 -112.938 28.6498
429 -13.0028 9.95289 1.4 35.0405 -92.7101 112.556
430 -12.0028 9.95289 1.4 34.0872 -93.1547 -13.798
431 -11.0028 9.95289 1.4 33.1368 -96.3105 -77.4923
432 -10.0028 9.95289 1.4 32.1893 -109.336 166.883
433 -9.00282 9.95289 1.4 31.2451 -100.667 -83.7758
434 -8.00282 9.95289 1.4 30.3044 -84.2328 118.151
435 -7.00282 9.95289 1.4 29.3677 -83.6411 159.186
436 -6.00282 9.95289 1.4 28.4353 -81.2563 142.595
437 -5.00282 9.95289 1.4 27.5077 -100.76 101.154
438 -4.00282 9.95289 1.4 26.5853 -93.7642 70.5784
439 -3.00282 9.95289 1.4 25.6687 -87.9407 -156.399
440 -2.00282 9.95289 1.4 24.7586 -81.389 80.6922
441 -1.00282 9.95289 1.4 23.8557 -98.3622 0.902677
442 -0.00282 9.95289 1.4 22.9608 -97.7751 41.5062
443 0.99718 9.95289 1.4 22.0749 -77.3272 3.96187
444 1.99718 9.95289 1.4 21.1992 -80.2409 -9.08201
445 2.99718 9.95289 1.4 20.335 -84.6711 -30.2759
446 3.99718 9.95289 1.4 19.4837 -70.6815 -82.8096
447 4.99718 9.95289 1.4 18.6473 -67.8898 109.23
448 5.99718 9.95289 1.4 17.8277 -69.2983 91.5495
449 6.99718 9.95289 1.4 17.0274 -71.2726 -106.072
450 7.99718 9.95289 1.4 16.2492 -71.9096 76.8448
451 8.99718 9.95289 1.4 15.4965 -68.817 168.754
452 9.99718 9.95289 1.4 14.7731 -65.4113 -150.999
453 10.9972 9.95289 1.4 14.0837 -61.1904 10.7704
454 11.9972 9.95289 1.4 13.4333 -60.3212 113.491
455 12.9972 9.95289 1.4 12.8281 -62.0751 54.5078
456 13.9972 9.95289 1.4 12.2745 -52.1087 163.205
457 14.9972 9.95289 1.4 11.78 -64.5877 -71.5543
458 15.9972 9.95289 1.4 11.3523 -60.3936 -140.17
459 16.9972 9.95289 1.4 10.999 -56.7274 166.614
460 17.9972 9.95289 1.4 10.7277 -57.3009 68.1767
461 18.9972 9.95289 1.4 10.5446 -51.4246 107.22
462 19.9972 9.95289 1.4 10.4543 -56.3168 -83.7213
463 20.9972 9.95289 1.4 10.4593 -67.2282 157.067
464 21.9972 9.95289 1.4 10.5595 -64.5745 125.01
465 22.9972 9.95289 1.4 10.7521 -62.2737 36.9963
466 23.9972 9.95289 1.4 11.0323 -59.4303 -156.007
467 24.9972 9.95289 1.4 11.3937 -62.9265 -52.6513
468 25.9972 9.95289 1.4 11.8288 -67.8678 -41.2417
469 26.9972 9.95289 1.4 12.3299 -75.592 -18.3365
470 27.9972 9.95289 1.4 12.8892 -61.8937 -0.730094
471 28.9972 9.95289 1.4 13.4995 -69.9765 -12.9442
472 29.9972 9.95289 1.4 14.1542 -57.8483 -68.5016
473 -28.0028 10.9529 1.4 49.3596 -113.892 152.626
474 -27.0028 10.9529 1.4 48.3785 -126.486 149.062
475 -26.0028 10.9529 1.4 47.3981 -122.245 -165.283
476 -25.0028 10.9529 1.4 46.4186 -112.285 -86.0335
477 -24.0028 10.9529 1.4 45.44 -118.492 2.01409
478 -23.0028 10.9529 1.4 44.4623 -112.752 93.1572
479 -22.0028 10.9529 1.4 43.4857 -105.772 -23.2236
480 -21.0028 10.9529 1.4 42.5101 -105.348 62.0622
481 -20.0028 10.9529 1.4 41.5357 -103.102 -172.434
482 -19.0028 10.9529 1.4 40.5625 -102.168 118.57
483 -18.0028 10.9529 1.4 39.5907 -110.669 160.573
484 -17.0028 10.9529 1.4 38.6203 -111.625 -85.0546
485 -16.0028 10.9529 1.4 37.6514 -111.987 14.4348
486 -15.0028 10.9529 1.4 36.6843 -131.725 136.541
487 -14.0028 10.9529 1.4 35.7189 -134.794 -73.2071
488 -13.0028 10.9529 1.4 34.7555 -95.7428 -102.827
489 -12.0028 10.9529 1.4 33.7942 -105.254 24.3361
490 -11.0028 10.9529 1.4 32.8353 -97.4783 -102.369
491 -10.0028 10.9529 1.4 31.8788 -90.8594 80.5977
492 -9.00282 10.9529 1.4 30.9251 -109.697 -86.2176
493 -8.00282 10.9529 1.4 29.9745 -109.159 -6.46029
494 -7.00282 10.9529 1.4 29.0271 -80.6654 -48.1857
495 -6.00282 10.9529 1.4 28.0834 -86.0806 -63.4455
496 -5.00282 10.9529 1.4 27.1438 -83.1523 -68.8191
497 -4.00282 10.9529 1.4 26.2086 -97.5037 17.6935
498 -3.00282 10.9529 1.4 25.2783 -78.5823 172.689
499 -2.00282 10.9529 1.4 24.3536 -77.3533 34.914
500 -1.00282 10.9529 1.4 23.4351 -77.1245 -103.12
501 -0.00282 10.9529 1.4 22.5235 -117.976 163.793
502 0.99718 10.9529 1.4 21.6197 -79.4427 -134.8
503 1.99718 10.9529 1.4 20.7248 -75.939 -118.323
504 2.99718 10.9529 1.4 19.8399 -77.3167 -130.122
505 3.99718 10.9529 1.4 18.9665 -74.9428 140.827
506 4.99718 10.9529 1.4 18.1061 -73.3112 169.547
507 5.99718 10.9529 1.4 17.2608 -65.7676 -89.2912
508 6.99718 10.9529 1.4 16.4329 -73.5205 -142.178
509 7.99718 10.9529 1.4 15.6252 -70.9847 119.146
510 8.99718 10.9529 1.4 14.8408 -75.9003 -31.402
511 9.99718 10.9529 1.4 14.0839 -64.6841 24.3998
512 10.9972 10.9529 1.4 13.3589 -59.3896 -23.4821
513 11.9972 10.9529 1.4 12.6714 -64.3692 -111.775
514 12.9972 10.9529 1.4 12.0279 -56.2163 -43.2341
515 13.9972 10.9529 1.4 11.4357 -55.8192 140.535
516 14.9972 10.9529 1.4 10.9032 -57.4616 70.0165
517 15.9972 10.9529 1.4 10.4395 -59.6491 14.3237
518 16.9972 10.9529 1.4 10.0543 -53.5118 116.178
519 17.9972 10.9529 1.4 9.75673 -53.767 116.561
520 18.9972 10.9529 1.4 9.55503 -51.0769 159.408
521 19.9972 10.9529 1.4 9.45533 -55.1037 -39.9164
522 20.9972 10.9529 1.4 9.46087 -58.5583 55.0624
523 21.9972 10.9529 1.4 9.57146 -66.9758 124.08
524 22.9972 10.9529 1.4 9.78354 -52.953 18.6979
525 23.9972 10.9529 1.4 10.0907 -64.7367 -173.034
526 24.9972 10.9529 1.4 10.4846 -61.7793 178.165
527 25.9972 10.9529 1.4 10.9559 -67.0134 86.166
528 26.9972 10.9529 1.4 11.4951 -65.2552 86.5907
529 27.9972 10.9529 1.4 12.093 -64.9474 179.316
530 28.9972 10.9529 1.4 12.7415 -59.3281 134.865
531 29.9972 10.9529 1.4 13.4332 -65.7072 78.8917
532 -28.0028 11.9529 1.4 49.1781 -106.338 -106.624
533 -27.0028 11.9529 1.4 48.1933 -108.63 -151.031
534 -26.0028 11.9529 1.4 47.209 -99.9833 -174.811
535 -25.0028 11.9529 1.4 46.2255 -97.4237 -137.152
536 -24.0028 11.9529 1.4 45.2427 -85.3434 18.9674
537 -23.0028 11.9529 1.4 44.2607 -79.8806 172.901
538 -22.0028 11.9529 1.4 43.2795 -84.3632 117.431
539 -21.0028 11.9529 1.4 42.2991 -80.6763 11.9273
540 -20.0028 11.9529 1.4 41.3198 -83.7109 -43.2182
541 -19.0028 11.9529 1.4 40.3414 -82.0504 52.721
542 -18.0028 11.9529 1.4 39.3641 -85.5537 19.8556
543 -17.0028 11.9529 1.4 38.388 -76.53 -1.03107
544 -16.0028 11.9529 1.4 37.4131 -71.2859 -35.6723
545 -15.0028 11.9529 1.4 36.4396 -69.8601 -105.206
546 -14.0028 11.9529 1.4 35.4676 -72.7476 -155.145
547 -13.0028 11.9529 1.4 34.4972 -73.217 177.03
548 -12.0028 11.9529 1.4 33.5285 -71.9414 135.052
549 -11.0028 11.9529 1.4 32.5617 -73.6536 9.77624
550 -10.0028 11.9529 1.4 31.597 -81.3226 77.4045
551 -9.00282 11.9529 1.4 30.6345 -79.8696 -41.1586
552 -8.00282 11.9529 1.4 29.6746 -78.854 8.43487
553 -7.00282 11.9529 1.4 28.7173 -77.851 -132.978
554 -6.00282 11.9529 1.4 27.7631 -90.0164 6.63163
555 -5.00282 11.9529 1.4 26.8122 -71.1609 -36.9316
556 -4.00282 11.9529 1.4 25.865 -66.2942 -97.3142
557 -3.00282 11.9529 1.4 24.922 -72.53 -178.193
558 -2.00282 11.9529 1.4 23.9835 -71.0417 -88.9047
559 -1.00282 11.9529 1.4 23.0502 -64.7962 121.248
560 -0.00282 11.9529 1.4 22.1228 -66.3536 -69.2905
561 0.99718 11.9529 1.4 21.202 -82.9864 32.1523
562 1.99718 11.9529 1.4 20.2886 -75.0211 0.0323874
563 2.99718 11.9529 1.4 19.3838 -62.6275 45.8628
564 3.99718 11.9529 1.4 18.4888 -79.6395 107.086
565 4.99718 11.9529 1.4 17.6052 -67.6285 27.0674
566 5.99718 11.9529 1.4 16.7346 -57.4896 -61.5194
567 6.99718 11.9529 1.4 15.8793 -73.7217 -117.356
568 7.99718 11.9529 1.4 15.0418 -63.0496 -60.1608
569 8.99718 11.9529 1.4 14.2254 -68.1154 149.246
570 9.99718 11.9529 1.4 13.4338 -60.0883 75.0446
571 10.9972 11.9529 1.4 12.6717 -65.5214 39.7944
572 11.9972 11.9529 1.4 11.9447 -60.4038 134.78
573 12.9972 11.9529 1.4 11.2597 -61.6474 0.13656
574 13.9972 11.9529 1.4 10.6247 -57.4082 43.9171
575 14.9972 11.9529 1.4 10.0494 -54.7033 -71.9208
576 15.9972 11.9529 1.4 9.54436 -50.8729 19.3549
577 16.9972 11.9529 1.4 9.12138 -49.6565 27.0679
578 17.9972 11.9529 1.4 8.79228 -51.0637 25.1867
579 18.9972 11.9529 1.4 8.56791 -64.8243 -66.6449
580 19.9972 11.9529 1.4 8.45658 -60.0923 133.222
581 20.9972 11.9529 1.4 8.46278 -59.569 128.921
582 21.9972 11.9529 1.4 8.58623 -52.0978 -133.523
583 22.9972 11.9529 1.4 8.82203 -67.2339 36.4147
584 23.9972 11.9529 1.4 9.16149 -64.2932 69.5246
585 24.9972 11.9529 1.4 9.59363 -66.4002 -146.178
586 25.9972 11.9529 1.4 10.1066 -61.6851 61.0952
587 26.9972 11.9529 1.4 10.6887 -68.4275 -116.448
588 27.9972 11.9529 1.4 11.3293 -57.5938 -120.287
589 28.9972 11.9529 1.4 12.019 -68.9644 -73.8198
590 29.9972 11.9529 1.4 12.75 -58.3628 -98.5371
591 -28.0028 12.9529 1.4 49.0163 -111.306 72.3851
592 -27.0028 12.9529 1.4 48.0281 -115.431 -114.773
593 -26.0028 12.9529 1.4 47.0405 -111.521 101.397
594 -25.0028 12.9529 1.4 46.0533 -114.25 84.5421
595 -24.0028 12.9529 1.4 45.0668 -95.8663 161.601
596 -23.0028 12.9529 1.4 44.0808 -97.7752 40.9289
597 -22.0028 12.9529 1.4 43.0955 -80.7662 -10.5429
598 -21.0028 12.9529 1.4 42.1109 -80.4048 -23.9766
599 -20.0028 12.9529 1.4 41.127 -81.127 -145.091
600 -19.0028 12.9529 1.4 40.144 -78.1554 -65.403
601 -18.0028 12.9529 1.4 39.1618 -75.6161 -117.058
602 -17.0028 12.9529 1.4 38.1805 -71.9044 -155.585
603 -16.0028 12.9529 1.4 37.2002 -74.4626 142.832
604 -15.0028 12.9529 1.4 36.2209 -74.2274 32.6511
605 -14.0028 12.9529 1.4 35.2429 -89.707 8.77607
606 -13.0028 12.9529 1.4 34.2661 -71.9193 -66.7513
607 -12.0028 12.9529 1.4 33.2907 -79.0669 -37.9711
608 -11.0028 12.9529 1.4 32.3168 -69.8185 -120.774
609 -10.0028 12.9529 1.4 31.3446 -73.9895 177.881
610 -9.00282 12.9529 1.4 30.3741 -77.5946 -157.859
611 -8.00282 12.9529 1.4 29.4056 -78.6229 -148.07
612 -7.00282 12.9529 1.4 28.4393 -74.2731 -77.7453
613 -6.00282 12.9529 1.4 27.4754 -81.8106 169.427
614 -5.00282 12.9529 1.4 26.5142 -71.8039 10.6987
615 -4.00282 12.9529 1.4 25.556 -78.4128 -167.252
616 -3.00282 12.9529 1.4 24.6011 -69.014 24.4582
617 -2.00282 12.9529 1.4 23.6499 -69.7896 11.8038
618 -1.00282 12.9529 1.4 22.703 -72.3632 -33.0346
619 -0.00282 12.9529 1.4 21.7607 -71.7539 -46.6853
620 0.99718 12.9529 1.4 20.8239 -77.4386 124.987
621 1.99718 12.9529 1.4 19.8932 -68.2926 -0.685937
622 2.99718 12.9529 1.4 18.9695 -66.0518 -2.24961
623 3.99718 12.9529 1.4 18.054 -59.768 -103.322
624 4.99718 12.9529 1.4 17.148 -60.1175 -177.835
625 5.99718 12.9529 1.4 16.2529 -65.3574 15.2011
626 6.99718 12.9529 1.4 15.3708 -60.9796 148.629
627 7.99718 12.9529 1.4 14.504 -63.6026 153.538
628 8.99718 12.9529 1.4 13.6555 -68.3218 83.8165
629 9.99718 12.9529 1.4 12.8287 -60.4616 23.3575
630 10.9972 12.9529 1.4 12.0284 -60.0231 -120.824
631 11.9972 12.9529 1.4 11.2599 -53.1888 20.439
632 12.9972 12.9529 1.4 10.5305 -56.8074 -1.61317
633 13.9972 12.9529 1.4 9.84864 -53.2257 -162.09
634 14.9972 12.9529 1.4 9.22499 -61.4244 -82.9724
635 15.9972 12.9529 1.4 8.6721 -67.0307 67.1615
636 16.9972 12.9529 1.4 8.20427 -51.66 139.176
637 17.9972 12.9529 1.4 7.83676 -51.1931 -159.942
638 18.9972 12.9529 1.4 7.58417 -49.5805 -55.278
639 19.9972 12.9529 1.4 7.45817 -58.3758 -98.5428
640 20.9972 12.9529 1.4 7.4652 -57.542 112.237
641 21.9972 12.9529 1.4 7.60486 -66.311 27.0716
642 22.9972 12.9529 1.4 7.87011 -65.2131 -153.035
643 23.9972 12.9529 1.4 8.24885 -70.2589 -102.242
644 24.9972 12.9529 1.4 8.7263 -64.839 -97.6123
645 25.9972 12.9529 1.4 9.28725 -67.0646 171.355
646 26.9972 12.9529 1.4 9.91755 -62.8737 128.193
647 27.9972 12.9529 1.4 10.6048 -79.524 -104.213
648 28.9972 12.9529 1.4 11.3388 -54.8818 86.9368
649 29.9972 12.9529 1.4 12.1108 -62.7267 73.4386
650 -28.0028 13.9529 1.4 48.8744 -107.509 158.095
651 -27.0028 13.9529 1.4 47.8833 -110.671 160.249
652 -26.0028 13.9529 1.4 46.8926 -109.748 -164.832
653 -25.0028 13.9529 1.4 45.9023 -111.515 105.817
654 -24.0028 13.9529 1.4 44.9124 -103.359 68.7257
655 -23.0028 13.9529 1.4 43.923 -80.4932 -123.836
656 -22.0028 13.9529 1.4 42.9341 -84.586 127.746
657 -21.0028 13.9529 1.4 41.9457 -78.3746 -148.375
658 -20.0028 13.9529 1.4 40.9578 -79.3162 120.426
659 -19.0028 13.9529 1.4 39.9706 -81.248 101.256
660 -18.0028 13.9529 1.4 38.984 -94.7547 6.06848
661 -17.0028 13.9529 1.4 37.9981 -75.9643 12.6791
662 -16.0028 13.9529 1.4 37.013 -83.4013 -98.1481
663 -15.0028 13.9529 1.4 36.0287 -87.7243 163.985
664 -14.0028 13.9529 1.4 35.0453 -82.9499 69.1212
665 -13.0028 13.9529 1.4 34.0628 -81.9059 109.812
666 -12.0028 13.9529 1.4 33.0814 -72.1002 109.571
667 -11.0028 13.9529 1.4 32.1012 -74.1904 88.6839
668 -10.0028 13.9529 1.4 31.1222 -73.4133 55.4504
669 -9.00282 13.9529 1.4 30.1446 -77.3388 -24.0616
670 -8.00282 13.9529 1.4 29.1685 -97.7882 -18.2198
671 -7.00282 13.9529 1.4 28.1941 -76.3483 -9.94885
672 -6.00282 13.9529 1.4 27.2215 -80.6563 29.2934
673 -5.00282 13.9529 1.4 26.251 -76.2522 -101.198
674 -4.00282 13.9529 1.4 25.2828 -70.8896 -0.522206
675 -3.00282 13.9529 1.4 24.3172 -73.9745 96.8635
676 -2.00282 13.9529 1.4 23.3544 -69.7281 -129.891
677 -1.00282 13.9529 1.4 22.395 -69.9227 -177.512
678 -0.00282 13.9529 1.4 21.4392 -90.3383 -74.2992
679 0.99718 13.9529 1.4 20.4877 -72.9969 -174.938
680 1.99718 13.9529 1.4 19.541 -64.9403 -165.369
681 2.99718 13.9529 1.4 18.5998 -61.564 163.09
682 3.99718 13.9529 1.4 17.6652 -61.1531 9.1415
683 4.99718 13.9529 1.4 16.7381 -65.9605 137.389
684 5.99718 13.9529 1.4 15.8199 -65.1451 -8.30262
685 6.99718 13.9529 1.4 14.9122 -59.9239 -35.2345
686 7.99718 13.9529 1.4 14.017 -60.9777 -3.38052
687 8.99718 13.9529 1.4 13.1371 -61.9443 -111.054
688 9.99718 13.9529 1.4 12.2755 -75.5001 -115.04
689 10.9972 13.9529 1.4 11.4364 -63.4936 115.184
690 11.9972 13.9529 1.4 10.6253 -59.3961 66.7482
691 12.9972 13.9529 1.4 9.84893 -55.9143 -165.873
692 13.9972 13.9529 1.4 9.11626 -50.9567 -147.391
693 14.9972 13.9529 1.4 8.43866 -60.0535 6.6737
694 15.9972 13.9529 1.4 7.83044 -54.9288 -9.13206
695 16.9972 13.9529 1.4 7.30894 -58.3817 150.257
696 17.9972 13.9529 1.4 6.89386 -45.5845 133.258
697 18.9972 13.9529 1.4 6.60531 -45.5386 21.1311
698 19.9972 13.9529 1.4 6.46026 -56.5952 -78.3736
699 20.9972 13.9529 1.4 6.46836 -59.0922 105.464
700 21.9972 13.9529 1.4 6.62906 -71.6899 -72.1224
701 22.9972 13.9529 1.4 6.93176 -60.1402 -55.6394
702 23.9972 13.9529 1.4 7.35894 -60.9083 -85.4564
703 24.9972 13.9529 1.4 7.89042 -63.5488 -73.8193
704 25.9972 13.9529 1.4 8.50668 -64.2422 -30.6702
705 26.9972 13.9529 1.4 9.19067 -60.7666 49.1222
706 27.9972 13.9529 1.4 9.9284 -55.1305 -43.3102
707 28.9972 13.9529 1.4 10.7088 -68.7603 -122.941
708 29.9972 13.9529 1.4 11.5231 -59.6452 97.0941
709 -28.0028 14.9529 1.4 48.7526 -112.333 44.9831
710 -27.0028 14.9529 1.4 47.759 -113.64 -62.487
711 -26.0028 14.9529 1.4 46.7656 -126.69 131.769
712 -25.0028 14.9529 1.4 45.7726 -103.177 157.505
713 -24.0028 14.9529 1.4 44.7799 -89.1625 106.435
714 -23.0028 14.9529 1.4 43.7874 -91.3022 16.0554
715 -22.0028 14.9529 1.4 42.7954 -79.2088 84.5069
716 -21.0028 14.9529 1.4 41.8037 -105.758 77.6975
717 -20.0028 14.9529 1.4 40.8124 -99.2687 -80.1947
718 -19.0028 14.9529 1.4 39.8216 -101.817 117.726
719 -18.0028 14.9529 1.4 38.8312 -124.834 -151.538
720 -17.0028 14.9529 1.4 37.8414 -99.9864 119.195
721 -16.0028 14.9529 1.4 36.852 -97.5459 -65.3445
722 -15.0028 14.9529 1.4 35.8633 -98.3694 75.0109
723 -14.0028 14.9529 1.4 34.8752 -125.443 -31.2027
724 -13.0028 14.9529 1.4 33.8879 -100.213 65.2595
725 -12.0028 14.9529 1.4 32.9013 -102.105 133.23
726 -11.0028 14.9529 1.4 31.9155 -132.939 -155.18
727 -10.0028 14.9529 1.4 30.9306 -95.957 135.729
728 -9.00282 14.9529 1.4 29.9467 -95.8393 -143.343
729 -8.00282 14.9529 1.4 28.964 -80.5143 -14.5569
730 -7.00282 14.9529 1.4 27.9824 -85.2929 104.215
731 -6.00282 14.9529 1.4 27.0022 -94.4108 148
732 -5.00282 14.9529 1.4 26.0236 -85.0495 -124.81
733 -4.00282 14.9529 1.4 25.0466 -96.9994 -143.71
734 -3.00282 14.9529 1.4 24.0715 -84.9426 124.356
735 -2.00282 14.9529 1.4 23.0985 -85.7561 56.5831
736 -1.00282 14.9529 1.4 22.1279 -91.0603 -137.854
737 -0.00282 14.9529 1.4 21.1601 -87.5662 -118.691
738 0.99718 14.9529 1.4 20.1954 -77.3053 -159.944
739 1.99718 14.9529 1.4 19.2343 -74.4105 92.6304
740 2.99718 14.9529 1.4 18.2774 -100.017 -167.199
741 3.99718 14.9529 1.4 17.3254 -56.6 122.953
742 4.99718 14.9529 1.4 16.3791 -63.1597 27.4037
743 5.99718 14.9529 1.4 15.4395 -58.5459 -80.0214
744 6.99718 14.9529 1.4 14.508 -59.7016 142.125
745 7.99718 14.9529 1.4 13.5863 -66.2814 160.259
746 8.99718 14.9529 1.4 12.6765 -59.0686 -39.7925
747 9.99718 14.9529 1.4 11.7812 -52.5529 45.3774
748 10.9972 14.9529 1.4 10.9042 -58.2567 88.786
749 11.9972 14.9529 1.4 10.0502 -62.5702 -96.0175
750 12.9972 14.9529 1.4 9.22562 -46.7424 114.771
751 13.9972 14.9529 1.4 8.439 -62.0332 -46.0729
752 14.9972 14.9529 1.4 7.70205 -49.292 -7.62007
753 15.9972 14.9529 1.4 7.03039 -59.7015 162.863
754 16.9972 14.9529 1.4 6.44446 -58.3891 27.5926
755 17.9972 14.9529 1.4 5.96958 -57.2653 -34.446
756 18.9972 14.9529 1.4 5.63389 -54.6273 10.9984
757 19.9972 14.9529 1.4 5.4631 -59.0619 -163.266
758 20.9972 14.9529 1.4 5.47268 -81.8074 101.941
759 21.9972 14.9529 1.4 5.66171 -63.2925 84.5636
760 22.9972 14.9529 1.4 6.0133 -75.4384 -53.6974
761 23.9972 14.9529 1.4 6.50112 -57.0334 -25.014
762 24.9972 14.9529 1.4 7.09713 -72.4137 -31.9885
763 25.9972 14.9529 1.4 7.77651 -50.7209 -146.692
764 26.9972 14.9529 1.4 8.51932 -49.6325 98.7452
765 27.9972 14.9529 1.4 9.31041 -50.1967 -139.929
766 28.9972 14.9529 1.4 10.1385 -51.4794 -22.7808
767 29.9972 14.9529 1.4 10.9951 -63.0269 28.5908
768 -28.0028 15.9529 1.4 48.6511 -127.428 15.9861
769 -27.0028 15.9529 1.4 47.6553 -102.864 131.214
770 -26.0028 15.9529 1.4 46.6598 -112.25 101.31
771 -25.0028 15.9529 1.4 45.6644 -100.927 31.1457
772 -24.0028 15.9529 1.4 44.6693 -82.2816 -8.14272
773 -23.0028 15.9529 1.4 43.6744 -90.4004 -154.442
774 -22.0028 15.9529 1.4 42.6797 -93.4639 -165.908
775 -21.0028 15.9529 1.4 41.6853 -92.7582 147.513
776 -20.0028 15.9529 1.4 40.6911 -114.413 25.1628
777 -19.0028 15.9529 1.4 39.6972 -106.912 -127.966
778 -18.0028 15.9529 1.4 38.7037 -109.502 150.716
779 -17.0028 15.9529 1.4 37.7105 -116.747 78.0679
780 -16.0028 15.9529 1.4 36.7176 -107.814 -158.7
781 -15.0028 15.9529 1.4 35.7252 -110.468 151.182
782 -14.0028 15.9529 1.4 34.7332 -114.861 -168.949
783 -13.0028 15.9529 1.4 33.7416 -106.64 -112.941
784 -12.0028 15.9529 1.4 32.7506 -104.947 -0.693129
785 -11.0028 15.9529 1.4 31.7602 -97.7602 -12.0119
786 -10.0028 15.9529 1.4 30.7703 -84.8263 -72.1828
787 -9.00282 15.9529 1.4 29.7812 -76.156 17.2455
788 -8.00282 15.9529 1.4 28.7927 -79.4691 -90.2753
789 -7.00282 15.9529 1.4 27.8052 -73.8084 141.66
790 -6.00282 15.9529 1.4 26.8185 -82.5913 176.844
791 -5.00282 15.9529 1.4 25.8329 -90.0365 -161.129
792 -4.00282 15.9529 1.4 24.8484 -79.8686 77.066
793 -3.00282 15.9529 1.4 23.8652 -78.8804 161.438
794 -2.00282 15.9529 1.4 22.8834 -82.8612 -177.705
795 -1.00282 15.9529 1.4 21.9033 -85.6388 -132.404
796 -0.00282 15.9529 1.4 20.9251 -75.5555 65.9221
797 0.99718 15.9529 1.4 19.9491 -75.3833 -85.9064
798 1.99718 15.9529 1.4 18.9755 -91.4183 -69.6987
799 2.99718 15.9529 1.4 18.0049 -85.1191 90.0188
800 3.99718 15.9529 1.4 17.0376 -61.7811 147.494
801 4.99718 15.9529 1.4 16.0743 -67.3836 8.14754
802 5.99718 15.9529 1.4 15.1159 -56.8887 105.227
803 6.99718 15.9529 1.4 14.1631 -58.2446 -141.38
804 7.99718 15.9529 1.4 13.2174 -56.0419 17.5358
805 8.99718 15.9529 1.4 12.2802 -53.2494 -42.7603
806 9.99718 15.9529 1.4 11.3538 -55.7466 -73.3753
807 10.9972 15.9529 1.4 10.4409 -52.5414 122.593
808 11.9972 15.9529 1.4 9.54556 -49.1793 -78.2357
809 12.9972 15.9529 1.4 8.67309 -49.551 -13.1893
810 13.9972 15.9529 1.4 7.83118 -51.4876 -174.597
811 14.9972 15.9529 1.4 7.0308 -48.8855 149.667
812 15.9972 15.9529 1.4 6.28784 -55.0119 -146.514
813 16.9972 15.9529 1.4 5.62509 -51.8106 71.1575
814 17.9972 15.9529 1.4 5.07409 -44.7138 140.719
815 18.9972 15.9529 1.4 4.67453 -65.572 163.871
816 19.9972 15.9529 1.4 4.46721 -45.7494 112.051
817 20.9972 15.9529 1.4 4.47892 -61.0259 19.1539
818 21.9972 15.9529 1.4 4.70803 -65.3097 -66.2016
819 22.9972 15.9529 1.4 5.12546 -56.977 56.8435
820 23.9972 15.9529 1.4 5.68991 -52.9045 -173.403
821 24.9972 15.9529 1.4 6.36238 -56.0132 93.1877
822 25.9972 15.9529 1.4 7.11229 -50.8918 -72.3304
823 26.9972 15.9529 1.4 7.91766 -49.5488 8.07376
824 27.9972 15.9529 1.4 8.76323 -52.0089 20.4058
825 28.9972 15.9529 1.4 9.63841 -58.241 84.2486
826 29.9972 15.9529 1.4 10.5358 -55.8287 140.449
827 -28.0028 16.9529 1.4 48.5699 -120.213 141.416
828 -27.0028 16.9529 1.4 47.5725 -118.906 -129.597
829 -26.0028 16.9529 1.4 46.5752 -123.122 16.5118
830 -25.0028 16.9529 1.4 45.578 -114.052 98.6038
831 -24.0028 16.9529 1.4 44.5809 -88.2939 61.9227
832 -23.0028 16.9529 1.4 43.584 -89.0661 88.0211
833 -22.0028 16.9529 1.4 42.5872 -90.5081 95.7268
834 -21.0028 16.9529 1.4 41.5905 -92.257 106.628
835 -20.0028 16.9529 1.4 40.594 -124.215 -145.657
836 -19.0028 16.9529 1.4 39.5977 -129.025 -83.774
837 -18.0028 16.9529 1.4 38.6016 -114.422 -58.6384
838 -17.0028 16.9529 1.4 37.6057 -121.074 143.761
839 -16.0028 16.9529 1.4 36.61 -126.18 -57.19
840 -15.0028 16.9529 1.4 35.6146 -108.807 24.7422
841 -14.0028 16.9529 1.4 34.6194 -106.533 80.6198
842 -13.0028 16.9529 1.4 33.6245 -97.3932 10.1866
843 -12.0028 16.9529 1.4 32.63 -104.714 -141.004
844 -11.0028 16.9529 1.4 31.6357 -93.5227 35.7342
845 -10.0028 16.9529 1.4 30.6419 -74.9175 -134.69
846 -9.00282 16.9529 1.4 29.6484 -77.5743 66.66
847 -8.00282 16.9529 1.4 28.6554 -90.0629 -44.6323
848 -7.00282 16.9529 1.4 27.6629 -80.5801 44.0573
849 -6.00282 16.9529 1.4 26.671 -77.1978 13.1396
850 -5.00282 16.9529 1.4 25.6797 -87.9475 -40.9382
851 -4.00282 16.9529 1.4 24.6891 -91.2663 23.764
852 -3.00282 16.9529 1.4 23.6993 -84.6525 -71.1576
853 -2.00282 16.9529 1.4 22.7104 -82.6594 -31.3629
854 -1.00282 16.9529 1.4 21.7225 -82.232 -27.5852
855 -0.00282 16.9529 1.4 20.7357 -81.4729 139.389
856 0.99718 16.9529 1.4 19.7503 -88.4295 -61.3645
857 1.99718 16.9529 1.4 18.7665 -96.5429 -12.0317
858 2.99718 16.9529 1.4 17.7844 -82.4382 138.734
859 3.99718 16.9529 1.4 16.8045 -61.1128 83.8296
860 4.99718 16.9529 1.4 15.827 -62.9555 156.41
861 5.99718 16.9529 1.4 14.8526 -58.3467 145.897
862 6.99718 16.9529 1.4 13.8818 -58.6844 -159.581
863 7.99718 16.9529 1.4 12.9155 -63.42 -171.952
864 8.99718 16.9529 1.4 11.9547 -55.0359 112.85
865 9.99718 16.9529 1.4 11.0009 -66.3441 64.4011
866 10.9972 16.9529 1.4 10.056 -48.7904 94.7464
867 11.9972 16.9529 1.4 9.12296 -55.5103 -28.2466
868 12.9972 16.9529 1.4 8.20567 -55.6168 -131.355
869 13.9972 16.9529 1.4 7.31012 -49.2668 50.9777
870 14.9972 16.9529 1.4 6.44536 -51.1648 -1.53333
871 15.9972 16.9529 1.4 5.6256 -49.7997 -42.7874
872 16.9972 16.9529 1.4 4.87362 -45.5477 71.6442
873 17.9972 16.9529 1.4 4.22575 -50.2494 91.5754
874 18.9972 16.9529 1.4 3.73654 -46.7211 -85.1291
875 19.9972 16.9529 1.4 3.47369 -52.4868 100.644
876 20.9972 16.9529 1.4 3.48874 -51.4755 162.167
877 21.9972 16.9529 1.4 3.77837 -58.4226 -126.701
878 22.9972 16.9529 1.4 4.28729 -46.7885 35.9737
879 23.9972 16.9529 1.4 4.9483 -53.3814 -163.723
880 24.9972 16.9529 1.4 5.7088 -48.0959 106.832
881 25.9972 16.9529 1.4 6.53415 -48.9306 129.88
882 26.9972 16.9529 1.4 7.4027 -57.0112 80.4946
883 27.9972 16.9529 1.4 8.30089 -57.5792 -125.872
884 28.9972 16.9529 1.4 9.22006 -61.8218 -19.7848
885 29.9972 16.9529 1.4 10.1545 -56.7591 -54.7884
886 -28.0028 17.9529 1.4 48.5093 -120.524 -157.658
887 -27.0028 17.9529 1.4 47.5106 -141.44 -98.6612
888 -26.0028 17.9529 1.4 46.5119 -156.225 -7.18433
889 -25.0028 17.9529 1.4 45.5133 -130.718 -140.846
890 -24.0028 17.9529 1.4 44.5148 -250 0
891 -23.0028 17.9529 1.4 43.5163 -121.043 90.6787
892 -22.0028 17.9529 1.4 42.518 -122.163 123.631
893 -21.0028 17.9529 1.4 41.5196 -141.231 -91.5738
894 -20.0028 17.9529 1.4 40.5214 -153.638 12.7344
895 -19.0028 17.9529 1.4 39.5233 -154.168 -44.7476
896 -18.0028 17.9529 1.4 38.5253 -154.799 -109.928
897 -17.0028 17.9529 1.4 37.5273 -121.022 -164.534
898 -16.0028 17.9529 1.4 36.5295 -121.25 -1.85569
899 -15.0028 17.9529 1.4 35.5318 -120.803 -20.2995
900 -14.0028 17.9529 1.4 34.5343 -109.372 36.6712
901 -13.0028 17.9529 1.4 33.5368 -90.4901 -73.204
902 -12.0028 17.9529 1.4 32.5396 -94.3605 -4.40272
903 -11.0028 17.9529 1.4 31.5425 -94.15 -15.7601
904 -10.0028 17.9529 1.4 30.5456 -79.0377 -62.7501
905 -9.00282 17.9529 1.4 29.5489 -76.6228 126.845
906 -8.00282 17.9529 1.4 28.5525 -80.7328 -98.6639
907 -7.00282 17.9529 1.4 27.5563 -89.9918 -55.4283
908 -6.00282 17.9529 1.4 26.5604 -78.3665 153.071
909 -5.00282 17.9529 1.4 25.5648 -88.7004 132.66
910 -4.00282 17.9529 1.4 24.5695 -83.0942 -143.5
911 -3.00282 17.9529 1.4 23.5747 -84.821 58.2614
912 -2.00282 17.9529 1.4 22.5803 -83.9359 102.909
913 -1.00282 17.9529 1.4 21.5865 -86.9083 23.6399
914 -0.00282 17.9529 1.4 20.5932 -91.8897 -51.8386
915 0.99718 17.9529 1.4 19.6007 -78.1336 49.1781
916 1.99718 17.9529 1.4 18.6089 -74.7491 -69.915
917 2.99718 17.9529 1.4 17.6181 -75.4731 -41.1518
918 3.99718 17.9529 1.4 16.6283 -67.548 98.8664
919 4.99718 17.9529 1.4 15.6399 -64.2891 145.189
920 5.99718 17.9529 1.4 14.653 -63.5349 72.5712
921 6.99718 17.9529 1.4 13.668 -56.0881 13.349
922 7.99718 17.9529 1.4 12.6854 -57.6427 -14.5737
923 8.99718 17.9529 1.4 11.7057 -62.5348 -169.661
924 9.99718 17.9529 1.4 10.7298 -67.6066 -42.1515
925 10.9972 17.9529 1.4 9.75879 -53.9574 -119.951
926 11.9972 17.9529 1.4 8.79425 -65.2116 103.747
927 12.9972 17.9529 1.4 7.8386 -57.3351 108.432
928 13.9972 17.9529 1.4 6.89554 -47.1423 98.7638
929 14.9972 17.9529 1.4 5.97103 -48.7945 -44.998
930 15.9972 17.9529 1.4 5.07523 -46.9485 135.52
931 16.9972 17.9529 1.4 4.22643 -48.2177 123.561
932 17.9972 17.9529 1.4 3.45941 -41.9389 162.619
933 18.9972 17.9529 1.4 2.84118 -40.7647 -89.949
934 19.9972 17.9529 1.4 2.48537 -46.2061 141.867
935 20.9972 17.9529 1.4 2.50636 -57.179 94.7241
936 21.9972 17.9529 1.4 2.89596 -45.7 -160.867
937 22.9972 17.9529 1.4 3.53432 -47.6428 54.6625
938 23.9972 17.9529 1.4 4.31233 -47.5667 -133.238
939 24.9972 17.9529 1.4 5.1673 -50.8849 -169.113
940 25.9972 17.9529 1.4 6.06677 -69.8241 -35.2285
941 26.9972 17.9529 1.4 6.9936 -52.3552 -168.049
942 27.9972 17.9529 1.4 7.93822 -50.2361 -171.713
943 28.9972 17.9529 1.4 8.89494 -63.4882 -17.3426
944 29.9972 17.9529 1.4 9.86026 -58.8872 -34.7554
945 -28.0028 18.9529 1.4 48.4691 -250 0
946 -27.0028 18.9529 1.4 47.4696 -250 0
947 -26.0028 18.9529 1.4 46.4701 -250 0
948 -25.0028 18.9529 1.4 45.4706 -250 0
949 -24.0028 18.9529 1.4 44.4711 -250 0
950 -23.0028 18.9529 1.4 43.4716 -250 0
951 -22.0028 18.9529 1.4 42.4722 -250 0
952 -21.0028 18.9529 1.4 41.4728 -250 0
953 -20.0028 18.9529 1.4 40.4734 -250 0
954 -19.0028 18.9529 1.4 39.4741 -250 0
955 -18.0028 18.9529 1.4 38.4747 -250 0
956 -17.0028 18.9529 1.4 37.4755 -116.585 104.235
957 -16.0028 18.9529 1.4 36.4762 -110.801 -76.7962
958 -15.0028 18.9529 1.4 35.477 -110.43 93.4994
959 -14.0028 18.9529 1.4 34.4779 -113.916 50.3798
960 -13.0028 18.9529 1.4 33.4788 -91.2981 -146.2
961 -12.0028 18.9529 1.4 32.4798 -99.9549 -130.858
962 -11.0028 18.9529 1.4 31.4808 -92.9743 -99.2106
963 -10.0028 18.9529 1.4 30.4819 -76.2927 -68.1413
964 -9.00282 18.9529 1.4 29.483 -80.133 71.7964
965 -8.00282 18.9529 1.4 28.4843 -93.9432 7.46366
966 -7.00282 18.9529 1.4 27.4856 -84.2395 -102.574
967 -6.00282 18.9529 1.4 26.487 -84.9053 -32.3769
968 -5.00282 18.9529 1.4 25.4886 -81.8326 -153.026
969 -4.00282 18.9529 1.4 24.4903 -103.26 -18.6917
970 -3.00282 18.9529 1.4 23.4921 -85.2043 175.579
971 -2.00282 18.9529 1.4 22.4941 -85.0534 -153.968
972 -1.00282 18.9529 1.4 21.4962 -97.5888 31.1211
973 -0.00282 18.9529 1.4 20.4986 -87.9405 23.2567
974 0.99718 18.9529 1.4 19.5012 -72.4698 68.2428
975 1.99718 18.9529 1.4 18.5041 -77.7406 108.302
976 2.99718 18.9529 1.4 17.5073 -101.005 -93.8702
977 3.99718 18.9529 1.4 16.5109 -55.3785 0.576859
978 4.99718 18.9529 1.4 15.515 -56.8417 -41.2696
979 5.99718 18.9529 1.4 14.5197 -59.8801 -117.405
980 6.99718 18.9529 1.4 13.525 -63.1499 148.244
981 7.99718 18.9529 1.4 12.5312 -55.4578 -71.1677
982 8.99718 18.9529 1.4 11.5384 -67.4381 -78.8426
983 9.99718 18.9529 1.4 10.547 -68.6406 171.467
984 10.9972 18.9529 1.4 9.55744 -55.1659 -99.2853
985 11.9972 18.9529 1.4 8.57026 -56.2221 -143.456
986 12.9972 18.9529 1.4 7.58645 -52.98 -145.885
987 13.9972 18.9529 1.4 6.60749 -52.9976 147.174
988 14.9972 18.9529 1.4 5.63593 -53.7046 -144.599
989 15.9972 18.9529 1.4 4.67638 -48.6421 142.264
990 16.9972 18.9529 1.4 3.73808 -50.7469 50.7978
991 17.9972 18.9529 1.4 2.84219 -57.344 7.94342
992 18.9972 18.9529 1.4 2.0452 -40.645 108.06
993 19.9972 18.9529 1.4 1.51248 -36.4439 -161.08
994 20.9972 18.9529 1.4 1.54673 -46.147 -176.474
995 21.9972 18.9529 1.4 2.12065 -41.2289 -129.274
996 22.9972 18.9529 1.4 2.9329 -46.3957 -91.0937
997 23.9972 18.9529 1.4 3.83493 -48.838 172.135
998 24.9972 18.9529 1.4 4.77614 -53.0654 -100.42
999 25.9972 18.9529 1.4 5.73727 -46.6513 -81.6848
1000 26.9972 18.9529 1.4 6.70977 -51.288 -108.021
1001 27.9972 18.9529 1.4 7.68933 -60.9773 -67.1879
1002 28.9972 18.9529 1.4 8.67356 -57.2974 118.459
1003 29.9972 18.9529 1.4 9.66102 -56.405 82.747
1004 -28.0028 19.9529 1.4 48.4497 -250 0
1005 -27.0028 19.9529 1.4 47.4497 -250 0
1006 -26.0028 19.9529 1.4 46.4497 -250 0
1007 -25.0028 19.9529 1.4 45.4498 -250 0
1008 -24.0028 19.9529 1.4 44.4498 -250 0
1009 -23.0028 19.9529 1.4 43.4499 -250 0
1010 -22.0028 19.9529 1.4 42.4499 -250 0
1011 -21.0028 19.9529 1.4 41.45 -250 0
1012 -20.0028 19.9529 1.4 40.4501 -250 0
1013 -19.0028 19.9529 1.4 39.4501 -250 0
1014 -18.0028 19.9529 1.4 38.4502 -250 0
1015 -17.0028 19.9529 1.4 37.4503 -112.761 2.49133
1016 -16.0028 19.9529 1.4 36.4503 -100.527 -35.9087
1017 -15.0028 19.9529 1.4 35.4504 -96.9753 142.421
1018 -14.0028 19.9529 1.4 34.4505 -94.4876 164.199
1019 -13.0028 19.9529 1.4 33.4506 -92.3883 120.096
1020 -12.0028 19.9529 1.4 32.4507 -91.8906 79.3241
1021 -11.0028 19.9529 1.4 31.4508 -87.1905 177.657
1022 -10.0028 19.9529 1.4 30.4509 -84.2917 35.8459
1023 -9.00282 19.9529 1.4 29.451 -97.6846 -2.1401
1024 -8.00282 19.9529 1.4 28.4511 -96.0961 64.4712
1025 -7.00282 19.9529 1.4 27.4512 -80.9534 44.4011
1026 -6.00282 19.9529 1.4 26.4514 -85.6983 42.6455
1027 -5.00282 19.9529 1.4 25.4515 -87.4219 -9.70735
1028 -4.00282 19.9529 1.4 24.4517 -86.0527 81.2236
1029 -3.00282 19.9529 1.4 23.4518 -83.7267 -81.7142
1030 -2.00282 19.9529 1.4 22.452 -84.8746 38.6612
1031 -1.00282 19.9529 1.4 21.4522 -84.3995 84.9544
1032 -0.00282 19.9529 1.4 20.4524 -75.5559 -94.4222
1033 0.99718 19.9529 1.4 19.4527 -70.8736 -117.557
1034 1.99718 19.9529 1.4 18.453 -80.3722 -170.801
1035 2.99718 19.9529 1.4 17.4533 -83.8699 -5.99726
1036 3.99718 19.9529 1.4 16.4536 -57.793 170.025
1037 4.99718 19.9529 1.4 15.454 -53.6064 144.723
1038 5.99718 19.9529 1.4 14.4545 -59.2231 -49.8684
1039 6.99718 19.9529 1.4 13.455 -59.8868 143.375
1040 7.99718 19.9529 1.4 12.4556 -56.8105 125.552
1041 8.99718 19.9529 1.4 11.4562 -62.0183 50.5751
1042 9.99718 19.9529 1.4 10.4571 -59.7739 -89.056
1043 10.9972 19.9529 1.4 9.45807 -55.7924 160.608
1044 11.9972 19.9529 1.4 8.45931 -53.9807 86.9902
1045 12.9972 19.9529 1.4 7.46088 -62.7909 -171.626
1046 13.9972 19.9529 1.4 6.46293 -42.5197 -71.4049
1047 14.9972 19.9529 1.4 5.46574 -80.642 -41.3621
1048 15.9972 19.9529 1.4 4.46979 -49.6764 114.601
1049 16.9972 19.9529 1.4 3.47618 -44.6057 138.04
1050 17.9972 19.9529 1.4 2.48769 -47.39 -145.396
1051 18.9972 19.9529 1.4 1.51439 -39.3137 -164.746
1052 19.9972 19.9529 1.4 0.630984 -33.0812 -50.518
1053 20.9972 19.9529 1.4 0.709167 -33.9084 92.0198
1054 21.9972 19.9529 1.4 1.61484 -43.9614 -131.418
1055 22.9972 19.9529 1.4 2.59084 -43.2059 -129.841
1056 23.9972 19.9529 1.4 3.58012 -46.5434 135.375
1057 24.9972 19.9529 1.4 4.57406 -54.6913 70.7085
1058 25.9972 19.9529 1.4 5.57017 -62.993 -32.4087
1059 26.9972 19.9529 1.4 6.56746 -62.6318 83.6048
1060 27.9972 19.9529 1.4 7.56547 -60.9063 -107.288
1061 28.9972 19.9529 1.4 8.56394 -68.9077 -118.312
1062 29.9972 19.9529 1.4 9.56274 -60.3155 32.2248
