#Rx
# X(m), Y(m), Z(m), Distance(m), Power (dBm) Phase (deg)
1 -28.0028 2.95289 1.4 33.5641 -250 0
2 -27.2528 2.95289 1.4 32.8141 -250 0
3 -26.5028 2.95289 1.4 32.0641 -250 0
4 -25.7528 2.95289 1.4 31.3141 -250 0
5 -25.0028 2.95289 1.4 30.5641 -250 0
6 -24.2528 2.95289 1.4 29.8141 -250 0
7 -23.5028 2.95289 1.4 29.0641 -250 0
8 -22.7528 2.95289 1.4 28.3141 -250 0
9 -22.0028 2.95289 1.4 27.5641 -250 0
10 -21.2528 2.95289 1.4 26.8141 -250 0
11 -20.5028 2.95289 1.4 26.0641 -93.5677 -54.1561
12 -19.7528 2.95289 1.4 25.3142 -79.891 20.734
13 -19.0028 2.95289 1.4 24.5642 -77.7747 43.9573
14 -18.2528 2.95289 1.4 23.8142 -81.7188 46.7166
15 -17.5028 2.95289 1.4 23.0642 -90.1567 116.137
16 -16.7528 2.95289 1.4 22.3142 -73.7078 136.124
17 -16.0028 2.95289 1.4 21.5642 -69.9599 80.1614
18 -15.2528 2.95289 1.4 20.8142 -63.6505 91.2954
19 -14.5028 2.95289 1.4 20.0642 -66.5754 -5.61451
20 -13.7528 2.95289 1.4 19.3142 -65.4492 -42.3654
21 -13.0028 2.95289 1.4 18.5643 -68.2219 -171.973
22 -12.2528 2.95289 1.4 17.8143 -70.4701 51.4085
23 -11.5028 2.95289 1.4 17.0643 -76.031 86.6499
24 -10.7528 2.95289 1.4 16.3143 -66.7415 118.619
25 -10.0028 2.95289 1.4 15.5643 -64.0633 -118.794
26 -9.25282 2.95289 1.4 14.8144 -66.3826 -87.1087
27 -8.50282 2.95289 1.4 14.0644 -68.4418 88.869
28 -7.75282 2.95289 1.4 13.3144 -83.0347 147.666
29 -7.00282 2.95289 1.4 12.5645 -64.7404 177.293
30 -6.25282 2.95289 1.4 11.8145 -63.7457 -125.466
31 -5.50282 2.95289 1.4 11.0645 -65.1626 -81.6612
32 -4.75282 2.95289 1.4 10.3146 -69.1543 -33.5528
33 -4.00282 2.95289 1.4 9.56465 -65.7558 49.158
34 -3.25282 2.95289 1.4 8.81472 -68.3892 -117.42
35 -2.50282 2.95289 1.4 8.0648 -54.9299 -153.395
36 -1.75282 2.95289 1.4 7.3149 -54.9954 -127.641
37 -1.00282 2.95289 1.4 6.56502 -61.9499 -45.1943
38 -0.25282 2.95289 1.4 5.81517 -53.5352 12.8479
39 0.49718 2.95289 1.4 5.06536 -52.6041 88.9335
40 1.24718 2.95289 1.4 4.31562 -44.7473 -178.216
41 1.99718 2.95289 1.4 3.566 -42.3625 -163.303
42 2.74718 2.95289 1.4 2.81657 -43.2693 -125.741
43 3.49718 2.95289 1.4 2.06756 -45.2051 -57.6861
44 4.24718 2.95289 1.4 1.31967 -37.5514 61.7034
45 4.99718 2.95289 1.4 0.577276 -30.2489 100.243
46 5.74718 2.95289 1.4 0.22355 -22.4909 62.054
47 6.49718 2.95289 1.4 0.9443 -34.1236 93.2049
48 7.24718 2.95289 1.4 1.69069 -36.3379 48.1635
49 7.99718 2.95289 1.4 2.43929 -45.2374 -58.5977
50 8.74718 2.95289 1.4 3.18856 -40.7834 -60.617
51 9.49718 2.95289 1.4 3.9381 -44.6904 -112.681
52 10.2472 2.95289 1.4 4.68779 -45.3278 144.041
53 10.9972 2.95289 1.4 5.43756 -55.0355 54.3758
54 11.7472 2.95289 1.4 6.18739 -48.9975 26.6125
55 12.4972 2.95289 1.4 6.93726 -51.4493 10.4097
56 13.2472 2.95289 1.4 7.68715 -54.1432 -17.9049
57 13.9972 2.95289 1.4 8.43706 -54.9766 -178.063
58 14.7472 2.95289 1.4 9.18699 -57.2536 134.082
59 15.4972 2.95289 1.4 9.93692 -58.6275 86.0224
60 16.2472 2.95289 1.4 10.6869 -56.7987 44.2752
61 16.9972 2.95289 1.4 11.4368 -58.3192 21.3621
62 17.7472 2.95289 1.4 12.1868 -68.5917 -129.73
63 18.4972 2.95289 1.4 12.9367 -67.9405 170.66
64 19.2472 2.95289 1.4 13.6867 -69.6765 -114.582
65 19.9972 2.95289 1.4 14.4367 -62.6008 178.037
66 20.7472 2.95289 1.4 15.1867 -62.9721 -155.075
67 21.4972 2.95289 1.4 15.9366 -68.6415 160.896
68 22.2472 2.95289 1.4 16.6866 -66.0075 -11.3125
69 22.9972 2.95289 1.4 17.4366 -58.8062 47.8113
70 23.7472 2.95289 1.4 18.1866 -64.9852 104.915
71 24.4972 2.95289 1.4 18.9366 -59.8708 103.631
72 25.2472 2.95289 1.4 19.6865 -105.925 -157.245
73 25.9972 2.95289 1.4 20.4365 -61.724 -65.4586
74 26.7472 2.95289 1.4 21.1865 -71.689 -29.2523
75 27.4972 2.95289 1.4 21.9365 -96.4361 41.707
76 28.2472 2.95289 1.4 22.6865 -82.3013 129.647
77 28.9972 2.95289 1.4 23.4365 -76.8237 -9.54885
78 29.7472 2.95289 1.4 24.1865 -86.8361 -40.7844
79 30.4972 2.95289 1.4 24.9365 -74.6238 -43.5154
80 -28.0028 3.70289 1.4 33.5752 -250 0
81 -27.2528 3.70289 1.4 32.8255 -250 0
82 -26.5028 3.70289 1.4 32.0758 -250 0
83 -25.7528 3.70289 1.4 31.326 -250 0
84 -25.0028 3.70289 1.4 30.5763 -250 0
85 -24.2528 3.70289 1.4 29.8267 -250 0
86 -23.5028 3.70289 1.4 29.077 -250 0
87 -22.7528 3.70289 1.4 28.3273 -250 0
88 -22.0028 3.70289 1.4 27.5777 -250 0
89 -21.2528 3.70289 1.4 26.8281 -250 0
90 -20.5028 3.70289 1.4 26.0785 -100.219 175.4
91 -19.7528 3.70289 1.4 25.3289 -76.3696 -30.6143
92 -19.0028 3.70289 1.4 24.5794 -79.1805 -20.6421
93 -18.2528 3.70289 1.4 23.8299 -83.8256 3.2021
94 -17.5028 3.70289 1.4 23.0804 -85.8186 91.1648
95 -16.7528 3.70289 1.4 22.3309 -78.7711 18.8532
96 -16.0028 3.70289 1.4 21.5815 -76.513 -7.2364
97 -15.2528 3.70289 1.4 20.8322 -66.9068 101.947
98 -14.5028 3.70289 1.4 20.0829 -60.8977 -91.3179
99 -13.7528 3.70289 1.4 19.3336 -65.505 -105.832
100 -13.0028 3.70289 1.4 18.5844 -65.2163 114.102
101 -12.2528 3.70289 1.4 17.8353 -58.3207 70.7552
102 -11.5028 3.70289 1.4 17.0862 -66.6426 37.6447
103 -10.7528 3.70289 1.4 16.3372 -63.8961 133.918
104 -10.0028 3.70289 1.4 15.5884 -64.9962 -132.937
105 -9.25282 3.70289 1.4 14.8396 -64.3546 -173.941
106 -8.50282 3.70289 1.4 14.091 -68.1927 -95.7063
107 -7.75282 3.70289 1.4 13.3425 -60.4474 49.6038
108 -7.00282 3.70289 1.4 12.5942 -58.514 56.1379
109 -6.25282 3.70289 1.4 11.8461 -59.1532 123.65
110 -5.50282 3.70289 1.4 11.0983 -60.9049 172.283
111 -4.75282 3.70289 1.4 10.3508 -58.4713 -144.042
112 -4.00282 3.70289 1.4 9.60368 -57.4919 -95.5323
113 -3.25282 3.70289 1.4 8.85705 -59.5135 -6.86579
114 -2.50282 3.70289 1.4 8.11105 -49.8838 48.1472
115 -1.75282 3.70289 1.4 7.36586 -49.6579 73.1045
116 -1.00282 3.70289 1.4 6.62175 -56.9245 98.6096
117 -0.25282 3.70289 1.4 5.87914 -54.8186 -126.551
118 0.49718 3.70289 1.4 5.13868 -52.5268 -97.8917
119 1.24718 3.70289 1.4 4.40145 -50.3769 -18.5877
120 1.99718 3.70289 1.4 3.6694 -50.1392 -34.3811
121 2.74718 3.70289 1.4 2.94639 -49.9419 -70.844
122 3.49718 3.70289 1.4 2.2412 -41.8879 -164.954
123 4.24718 3.70289 1.4 1.57788 -41.2923 21.5625
124 4.99718 3.70289 1.4 1.03991 -34.9285 177.42
125 5.74718 3.70289 1.4 0.893392 -32.9968 -117.201
126 6.49718 3.70289 1.4 1.28058 -37.8158 -169.746
127 7.24718 3.70289 1.4 1.89911 -41.182 133.76
128 7.99718 3.70289 1.4 2.58811 -41.5695 -84.6557
129 8.74718 3.70289 1.4 3.30379 -65.0488 124.09
130 9.49718 3.70289 1.4 4.03197 -44.1643 -52.3388
131 10.2472 3.70289 1.4 4.76692 -45.8234 -48.3913
132 10.9972 3.70289 1.4 5.50593 -57.048 -105.305
133 11.7472 3.70289 1.4 6.24756 -50.8599 -165.063
134 12.4972 3.70289 1.4 6.99097 -48.7929 -169.849
135 13.2472 3.70289 1.4 7.73566 -58.6109 169.748
136 13.9972 3.70289 1.4 8.48128 -52.0564 47.9825
137 14.7472 3.70289 1.4 9.22762 -53.4004 -34.5662
138 15.4972 3.70289 1.4 9.9745 -52.5984 -78.4593
139 16.2472 3.70289 1.4 10.7218 -49.5941 -92.6906
140 16.9972 3.70289 1.4 11.4695 -59.7312 -153.96
141 17.7472 3.70289 1.4 12.2174 -61.7065 130.274
142 18.4972 3.70289 1.4 12.9656 -55.7193 45.3454
143 19.2472 3.70289 1.4 13.714 -58.4133 20.6496
144 19.9972 3.70289 1.4 14.4626 -62.4247 0.31398
145 20.7472 3.70289 1.4 15.2113 -60.0123 -116.398
146 21.4972 3.70289 1.4 15.9601 -61.8095 -153.228
147 22.2472 3.70289 1.4 16.709 -61.7789 163.281
148 22.9972 3.70289 1.4 17.458 -64.6344 9.39867
149 23.7472 3.70289 1.4 18.2071 -60.5104 -16.3342
150 24.4972 3.70289 1.4 18.9563 -59.8354 -62.2666
151 25.2472 3.70289 1.4 19.7055 -61.8892 8.53316
152 25.9972 3.70289 1.4 20.4548 -66.6924 -20.3439
153 26.7472 3.70289 1.4 21.2042 -69.8214 -93.5805
154 27.4972 3.70289 1.4 21.9535 -80.4907 -109.06
155 28.2472 3.70289 1.4 22.703 -75.2377 -135.671
156 28.9972 3.70289 1.4 23.4524 -79.3526 -137.857
157 29.7472 3.70289 1.4 24.2019 -80.4228 -106.284
158 30.4972 3.70289 1.4 24.9515 -85.7395 -57.4835
159 -28.0028 4.45289 1.4 33.6031 -250 0
160 -27.2528 4.45289 1.4 32.854 -250 0
161 -26.5028 4.45289 1.4 32.1049 -250 0
162 -25.7528 4.45289 1.4 31.3559 -250 0
163 -25.0028 4.45289 1.4 30.607 -250 0
164 -24.2528 4.45289 1.4 29.858 -250 0
165 -23.5028 4.45289 1.4 29.1092 -250 0
166 -22.7528 4.45289 1.4 28.3604 -250 0
167 -22.0028 4.45289 1.4 27.6116 -250 0
168 -21.2528 4.45289 1.4 26.863 -250 0
169 -20.5028 4.45289 1.4 26.1144 -100.111 -173.992
170 -19.7528 4.45289 1.4 25.3659 -90.1898 -146.438
171 -19.0028 4.45289 1.4 24.6175 -92.5768 -126.266
172 -18.2528 4.45289 1.4 23.8691 -97.7353 73.714
173 -17.5028 4.45289 1.4 23.1209 -84.4912 59.4797
174 -16.7528 4.45289 1.4 22.3729 -66.0385 2.18753
175 -16.0028 4.45289 1.4 21.6249 -65.6221 37.8026
176 -15.2528 4.45289 1.4 20.8771 -61.006 39.4525
177 -14.5028 4.45289 1.4 20.1294 -61.6015 136.658
178 -13.7528 4.45289 1.4 19.382 -58.921 105.916
179 -13.0028 4.45289 1.4 18.6347 -63.2802 -153.484
180 -12.2528 4.45289 1.4 17.8877 -59.1204 -43.7639
181 -11.5028 4.45289 1.4 17.1409 -57.7725 -47.6631
182 -10.7528 4.45289 1.4 16.3945 -74.4083 -108.891
183 -10.0028 4.45289 1.4 15.6483 -57.1038 54.7122
184 -9.25282 4.45289 1.4 14.9026 -56.9006 124.003
185 -8.50282 4.45289 1.4 14.1573 -63.4201 138.81
186 -7.75282 4.45289 1.4 13.4125 -59.0418 168.6
187 -7.00282 4.45289 1.4 12.6683 -56.9086 -117.872
188 -6.25282 4.45289 1.4 11.9249 -57.1999 -87.7425
189 -5.50282 4.45289 1.4 11.1824 -59.4487 -60.0098
190 -4.75282 4.45289 1.4 10.4409 -62.1378 4.28494
191 -4.00282 4.45289 1.4 9.70071 -57.8703 62.7144
192 -3.25282 4.45289 1.4 8.96218 -58.2104 -169.856
193 -2.50282 4.45289 1.4 8.22571 -55.6992 -166.347
194 -1.75282 4.45289 1.4 7.49193 -55.5962 -173.693
195 -1.00282 4.45289 1.4 6.76171 -62.1088 160.473
196 -0.25282 4.45289 1.4 6.03635 -54.2234 73.7488
197 0.49718 4.45289 1.4 5.31782 -49.7462 66.2015
198 1.24718 4.45289 1.4 4.60933 -49.6568 47.6174
199 1.99718 4.45289 1.4 3.91634 -50.1077 -88.6015
200 2.74718 4.45289 1.4 3.24876 -46.9257 110.258
201 3.49718 4.45289 1.4 2.62605 -42.6816 -168.435
202 4.24718 4.45289 1.4 2.08875 -42.1856 -15.9352
203 4.99718 4.45289 1.4 1.71889 -40.1267 -52.1191
204 5.74718 4.45289 1.4 1.63442 -42.5575 -133.859
205 6.49718 4.45289 1.4 1.87431 -46.7242 -152.776
206 7.24718 4.45289 1.4 2.34089 -47.2345 -15.3609
207 7.99718 4.45289 1.4 2.92771 -40.6711 16.4657
208 8.74718 4.45289 1.4 3.57606 -52.5408 -81.8611
209 9.49718 4.45289 1.4 4.25793 -45.2539 8.4785
210 10.2472 4.45289 1.4 4.9595 -54.7927 147.101
211 10.9972 4.45289 1.4 5.67348 -48.6715 54.0477
212 11.7472 4.45289 1.4 6.39571 -51.8304 116.187
213 12.4972 4.45289 1.4 7.12368 -55.4191 164.092
214 13.2472 4.45289 1.4 7.8558 -57.3674 175.902
215 13.9972 4.45289 1.4 8.591 -57.9252 175.992
216 14.7472 4.45289 1.4 9.32856 -57.4842 103.291
217 15.4972 4.45289 1.4 10.068 -51.8061 55.8666
218 16.2472 4.45289 1.4 10.8088 -54.8447 55.3106
219 16.9972 4.45289 1.4 11.5509 -57.5513 0.749135
220 17.7472 4.45289 1.4 12.2939 -55.7059 -102.365
221 18.4972 4.45289 1.4 13.0377 -56.8635 -146.886
222 19.2472 4.45289 1.4 13.7821 -57.3351 166.39
223 19.9972 4.45289 1.4 14.5272 -58.3847 125.008
224 20.7472 4.45289 1.4 15.2727 -60.5839 72.9369
225 21.4972 4.45289 1.4 16.0187 -54.2049 37.1647
226 22.2472 4.45289 1.4 16.765 -66.6653 11.7569
227 22.9972 4.45289 1.4 17.5116 -58.6215 -83.3218
228 23.7472 4.45289 1.4 18.2585 -53.3741 -102.468
229 24.4972 4.45289 1.4 19.0056 -57.5777 -141.606
230 25.2472 4.45289 1.4 19.753 -78.4246 37.7663
231 25.9972 4.45289 1.4 20.5006 -79.8847 -12.9264
232 26.7472 4.45289 1.4 21.2483 -92.1987 45.3241
233 27.4972 4.45289 1.4 21.9962 -81.7913 145.054
234 28.2472 4.45289 1.4 22.7442 -82.7021 -172.613
235 28.9972 4.45289 1.4 23.4923 -82.2114 -133.731
236 29.7472 4.45289 1.4 24.2406 -81.6789 -103.472
237 30.4972 4.45289 1.4 24.989 -79.2482 -101.895
238 -28.0028 5.20289 1.4 33.6477 -250 0
239 -27.2528 5.20289 1.4 32.8996 -250 0
240 -26.5028 5.20289 1.4 32.1516 -250 0
241 -25.7528 5.20289 1.4 31.4037 -250 0
242 -25.0028 5.20289 1.4 30.6559 -250 0
243 -24.2528 5.20289 1.4 29.9082 -250 0
244 -23.5028 5.20289 1.4 29.1606 -250 0
245 -22.7528 5.20289 1.4 28.4132 -250 0
246 -22.0028 5.20289 1.4 27.6659 -250 0
247 -21.2528 5.20289 1.4 26.9187 -250 0
248 -20.5028 5.20289 1.4 26.1717 -94.1585 58.7185
249 -19.7528 5.20289 1.4 25.4249 -90.6895 95.7766
250 -19.0028 5.20289 1.4 24.6783 -88.1091 100.144
251 -18.2528 5.20289 1.4 23.9319 -90.6527 131.073
252 -17.5028 5.20289 1.4 23.1857 -87.8941 -153.925
253 -16.7528 5.20289 1.4 22.4398 -63.6558 159.244
254 -16.0028 5.20289 1.4 21.6941 -59.8995 -172.926
255 -15.2528 5.20289 1.4 20.9488 -58.8578 -133.05
256 -14.5028 5.20289 1.4 20.2038 -67.2392 -77.7618
257 -13.7528 5.20289 1.4 19.4592 -57.3477 -38.0521
258 -13.0028 5.20289 1.4 18.715 -58.8784 68.7613
259 -12.2528 5.20289 1.4 17.9713 -59.4267 21.2844
260 -11.5028 5.20289 1.4 17.2282 -61.0149 83.5347
261 -10.7528 5.20289 1.4 16.4856 -65.3902 179.732
262 -10.0028 5.20289 1.4 15.7438 -70.4689 75.9207
263 -9.25282 5.20289 1.4 15.0028 -60.1697 -99.1014
264 -8.50282 5.20289 1.4 14.2628 -66.1991 -95.7891
265 -7.75282 5.20289 1.4 13.5238 -63.5857 -85.1412
266 -7.00282 5.20289 1.4 12.7861 -61.5515 20.7975
267 -6.25282 5.20289 1.4 12.05 -59.7778 69.1495
268 -5.50282 5.20289 1.4 11.3156 -63.1365 105.801
269 -4.75282 5.20289 1.4 10.5835 -68.8212 -170.121
270 -4.00282 5.20289 1.4 9.85404 -60.8906 -100.496
271 -3.25282 5.20289 1.4 9.12791 -53.6447 -72.6551
272 -2.50282 5.20289 1.4 8.40598 -54.3999 -61.3592
273 -1.75282 5.20289 1.4 7.68942 -55.9225 -70.4286
274 -1.00282 5.20289 1.4 6.9799 -66.2291 142.199
275 -0.25282 5.20289 1.4 6.27978 -56.7125 96.9519
276 0.49718 5.20289 1.4 5.59262 -48.9077 32.4395
277 1.24718 5.20289 1.4 4.92383 -47.4911 174.792
278 1.99718 5.20289 1.4 4.28204 -49.4713 -65.2872
279 2.74718 5.20289 1.4 3.68138 -46.4156 -63.8509
280 3.49718 5.20289 1.4 3.14552 -49.3819 -178.705
281 4.24718 5.20289 1.4 2.71312 -43.4445 -98.2734
282 4.99718 5.20289 1.4 2.43983 -43.1895 -43.5839
283 5.74718 5.20289 1.4 2.38107 -41.6532 162.871
284 6.49718 5.20289 1.4 2.55171 -45.8621 9.72925
285 7.24718 5.20289 1.4 2.91169 -41.2405 47.9025
286 7.99718 5.20289 1.4 3.40142 -48.904 49.5238
287 8.74718 5.20289 1.4 3.97321 -45.6817 128.358
288 9.49718 5.20289 1.4 4.59654 -47.4519 -170.406
289 10.2472 5.20289 1.4 5.25308 -47.7084 -102.531
290 10.9972 5.20289 1.4 5.93183 -49.2981 98.508
291 11.7472 5.20289 1.4 6.62596 -48.7355 -105.457
292 12.4972 5.20289 1.4 7.3311 -51.3365 -96.4385
293 13.2472 5.20289 1.4 8.04436 -47.5194 -105.676
294 13.9972 5.20289 1.4 8.76376 -54.7737 -34.6199
295 14.7472 5.20289 1.4 9.4879 -55.2007 -19.6086
296 15.4972 5.20289 1.4 10.2158 -65.0714 -57.2059
297 16.2472 5.20289 1.4 10.9466 -71.2034 63.8538
298 16.9972 5.20289 1.4 11.6799 -63.7343 70.373
299 17.7472 5.20289 1.4 12.4152 -60.6253 -7.12162
300 18.4972 5.20289 1.4 13.1521 -62.0911 -15.0471
301 19.2472 5.20289 1.4 13.8905 -69.2178 -35.3456
302 19.9972 5.20289 1.4 14.63 -59.3586 -130.734
303 20.7472 5.20289 1.4 15.3706 -53.8516 -146.798
304 21.4972 5.20289 1.4 16.112 -60.9979 -162.493
305 22.2472 5.20289 1.4 16.8542 -63.1735 115.493
306 22.9972 5.20289 1.4 17.597 -58.1204 45.7716
307 23.7472 5.20289 1.4 18.3404 -55.4422 26.347
308 24.4972 5.20289 1.4 19.0844 -57.8856 28.7593
309 25.2472 5.20289 1.4 19.8288 -69.9203 -100.188
310 25.9972 5.20289 1.4 20.5736 -71.1901 175.244
311 26.7472 5.20289 1.4 21.3187 -75.2127 -162.998
312 27.4972 5.20289 1.4 22.0642 -87.0042 -57.0791
313 28.2472 5.20289 1.4 22.81 -85.3393 -73.0263
314 28.9972 5.20289 1.4 23.5561 -87.7667 -103.184
315 29.7472 5.20289 1.4 24.3024 -85.3466 -109.359
316 30.4972 5.20289 1.4 25.0489 -81.9194 -115.962
317 -28.0028 5.95289 1.4 33.7089 -250 0
318 -27.2528 5.95289 1.4 32.9622 -250 0
319 -26.5028 5.95289 1.4 32.2157 -250 0
320 -25.7528 5.95289 1.4 31.4693 -250 0
321 -25.0028 5.95289 1.4 30.7231 -117.469 -163.872
322 -24.2528 5.95289 1.4 29.9771 -250 0
323 -23.5028 5.95289 1.4 29.2312 -250 0
324 -22.7528 5.95289 1.4 28.4856 -250 0
325 -22.0028 5.95289 1.4 27.7403 -250 0
326 -21.2528 5.95289 1.4 26.9952 -250 0
327 -20.5028 5.95289 1.4 26.2504 -92.7394 77.6332
328 -19.7528 5.95289 1.4 25.5059 -90.1348 75.7139
329 -19.0028 5.95289 1.4 24.7617 -93.1333 64.2221
330 -18.2528 5.95289 1.4 24.0179 -89.2112 40.2841
331 -17.5028 5.95289 1.4 23.2744 -78.4267 98.6891
332 -16.7528 5.95289 1.4 22.5314 -61.3586 -112.455
333 -16.0028 5.95289 1.4 21.7889 -62.7025 -49.8995
334 -15.2528 5.95289 1.4 21.047 -64.0911 -33.5983
335 -14.5028 5.95289 1.4 20.3056 -78.8121 -13.7005
336 -13.7528 5.95289 1.4 19.5648 -64.4408 142.372
337 -13.0028 5.95289 1.4 18.8248 -66.2304 -111.784
338 -12.2528 5.95289 1.4 18.0857 -56.813 -144.741
339 -11.5028 5.95289 1.4 17.3474 -63.9982 -168.038
340 -10.7528 5.95289 1.4 16.6102 -59.7449 -169.608
341 -10.0028 5.95289 1.4 15.8742 -56.9138 43.1973
342 -9.25282 5.95289 1.4 15.1396 -61.2648 -30.1294
343 -8.50282 5.95289 1.4 14.4066 -67.7792 170.803
344 -7.75282 5.95289 1.4 13.6754 -67.2457 24.6097
345 -7.00282 5.95289 1.4 12.9464 -57.181 153.587
346 -6.25282 5.95289 1.4 12.2199 -60.8184 149.795
347 -5.50282 5.95289 1.4 11.4964 -61.662 142.531
348 -4.75282 5.95289 1.4 10.7765 -63.2139 88.0075
349 -4.00282 5.95289 1.4 10.0611 -61.4467 26.6042
350 -3.25282 5.95289 1.4 9.35104 -55.6528 18.3469
351 -2.50282 5.95289 1.4 8.64776 -54.9589 8.68592
352 -1.75282 5.95289 1.4 7.95301 -59.4191 132.433
353 -1.00282 5.95289 1.4 7.26926 -52.9411 82.0075
354 -0.25282 5.95289 1.4 6.59991 -57.1435 -67.5219
355 0.49718 5.95289 1.4 5.94984 -55.7181 53.1766
356 1.24718 5.95289 1.4 5.3261 -48.6213 113.048
357 1.99718 5.95289 1.4 4.7391 -48.1637 76.4013
358 2.74718 5.95289 1.4 4.20426 -51.2051 -100.972
359 3.49718 5.95289 1.4 3.74399 -62.3557 -70.6457
360 4.24718 5.95289 1.4 3.38884 -41.2737 30.4509
361 4.99718 5.95289 1.4 3.17426 -43.0428 -16.5737
362 5.74718 5.95289 1.4 3.12932 -42.7734 92.6914
363 6.49718 5.95289 1.4 3.26104 -47.2734 58.3148
364 7.24718 5.95289 1.4 3.54981 -52.2254 -71.5023
365 7.99718 5.95289 1.4 3.96142 -49.6656 144.108
366 8.74718 5.95289 1.4 4.46202 -45.2222 124.774
367 9.49718 5.95289 1.4 5.02507 -48.4569 -116.863
368 10.2472 5.95289 1.4 5.63188 -52.7571 -69.6208
369 10.9972 5.95289 1.4 6.26975 -53.6264 69.6545
370 11.7472 5.95289 1.4 6.93011 -47.9858 2.91981
371 12.4972 5.95289 1.4 7.60712 -52.3205 -175.681
372 13.2472 5.95289 1.4 8.29668 -55.4894 -23.5398
373 13.9972 5.95289 1.4 8.99593 -65.4565 57.3324
374 14.7472 5.95289 1.4 9.70275 -61.9695 91.5077
375 15.4972 5.95289 1.4 10.4156 -74.2946 31.7258
376 16.2472 5.95289 1.4 11.1334 -56.9637 76.0738
377 16.9972 5.95289 1.4 11.8551 -63.7609 -132.999
378 17.7472 5.95289 1.4 12.5802 -71.7767 156.598
379 18.4972 5.95289 1.4 13.308 -71.9592 -134.147
380 19.2472 5.95289 1.4 14.0381 -64.3739 -100.228
381 19.9972 5.95289 1.4 14.7703 -59.9691 -80.3788
382 20.7472 5.95289 1.4 15.5041 -63.8205 -53.5852
383 21.4972 5.95289 1.4 16.2394 -80.3927 59.7823
384 22.2472 5.95289 1.4 16.976 -67.3897 75.6071
385 22.9972 5.95289 1.4 17.7138 -68.222 126.93
386 23.7472 5.95289 1.4 18.4525 -60.666 117.434
387 24.4972 5.95289 1.4 19.1921 -62.4348 114.815
388 25.2472 5.95289 1.4 19.9325 -63.9693 -20.0869
389 25.9972 5.95289 1.4 20.6735 -63.276 -31.8811
390 26.7472 5.95289 1.4 21.4152 -67.0528 -75.6331
391 27.4972 5.95289 1.4 22.1575 -82.5757 56.1915
392 28.2472 5.95289 1.4 22.9002 -83.9779 42.789
393 28.9972 5.95289 1.4 23.6434 -88.2286 112.705
394 29.7472 5.95289 1.4 24.387 -89.578 -41.029
395 30.4972 5.95289 1.4 25.1311 -88.0473 -23.4012
396 -28.0028 6.70289 1.4 33.7867 -250 0
397 -27.2528 6.70289 1.4 33.0417 -250 0
398 -26.5028 6.70289 1.4 32.297 -250 0
399 -25.7528 6.70289 1.4 31.5525 -139.326 40.8104
400 -25.0028 6.70289 1.4 30.8084 -250 0
401 -24.2528 6.70289 1.4 30.0645 -250 0
402 -23.5028 6.70289 1.4 29.3209 -250 0
403 -22.7528 6.70289 1.4 28.5776 -250 0
404 -22.0028 6.70289 1.4 27.8347 -250 0
405 -21.2528 6.70289 1.4 27.0922 -250 0
406 -20.5028 6.70289 1.4 26.3501 -83.4787 -147.742
407 -19.7528 6.70289 1.4 25.6085 -83.9935 -130.22
408 -19.0028 6.70289 1.4 24.8674 -81.9325 176.986
409 -18.2528 6.70289 1.4 24.1269 -93.0454 -122.12
410 -17.5028 6.70289 1.4 23.3869 -94.411 94.9433
411 -16.7528 6.70289 1.4 22.6476 -66.3658 56.7117
412 -16.0028 6.70289 1.4 21.909 -66.792 69.3129
413 -15.2528 6.70289 1.4 21.1713 -64.4774 153.991
414 -14.5028 6.70289 1.4 20.4344 -74.4514 113.513
415 -13.7528 6.70289 1.4 19.6985 -66.9309 -77.93
416 -13.0028 6.70289 1.4 18.9637 -64.0404 -13.8559
417 -12.2528 6.70289 1.4 18.2302 -65.2429 39.8402
418 -11.5028 6.70289 1.4 17.498 -58.2111 32.1047
419 -10.7528 6.70289 1.4 16.7675 -57.465 52.8426
420 -10.0028 6.70289 1.4 16.0387 -55.1615 8.10044
421 -9.25282 6.70289 1.4 15.312 -62.8165 -7.56113
422 -8.50282 6.70289 1.4 14.5876 -70.2331 -137.938
423 -7.75282 6.70289 1.4 13.866 -58.2006 0.262277
424 -7.00282 6.70289 1.4 13.1475 -60.1827 -118.125
425 -6.25282 6.70289 1.4 12.4327 -61.1636 -78.288
426 -5.50282 6.70289 1.4 11.7224 -63.7096 170.911
427 -4.75282 6.70289 1.4 11.0173 -63.966 118.468
428 -4.00282 6.70289 1.4 10.3186 -75.2475 58.0678
429 -3.25282 6.70289 1.4 9.62757 -65.0126 -50.3144
430 -2.50282 6.70289 1.4 8.94605 -55.7149 138.696
431 -1.75282 6.70289 1.4 8.27639 -66.6211 69.9785
432 -1.00282 6.70289 1.4 7.6217 -56.3861 160.548
433 -0.25282 6.70289 1.4 6.9862 -52.4948 -136.476
434 0.49718 6.70289 1.4 6.37564 -47.1158 -105.638
435 1.24718 6.70289 1.4 5.79789 -46.2017 -169.962
436 1.99718 6.70289 1.4 5.26376 -52.8936 -35.3048
437 2.74718 6.70289 1.4 4.78789 -65.7035 -84.2358
438 3.49718 6.70289 1.4 4.38927 -69.3945 136.342
439 4.24718 6.70289 1.4 4.09052 -42.3552 125.158
440 4.99718 6.70289 1.4 3.9146 -48.3471 -4.84248
441 5.74718 6.70289 1.4 3.87825 -50.0019 92.1949
442 6.49718 6.70289 1.4 3.98529 -46.5506 100.005
443 7.24718 6.70289 1.4 4.22484 -46.0819 125.96
444 7.99718 6.70289 1.4 4.57614 -50.5287 131.041
445 8.74718 6.70289 1.4 5.01575 -45.5294 -65.0724
446 9.49718 6.70289 1.4 5.52263 -48.1774 168.237
447 10.2472 6.70289 1.4 6.07998 -53.0567 105.282
448 10.9972 6.70289 1.4 6.67517 -51.9346 98.5341
449 11.7472 6.70289 1.4 7.29895 -54.8045 96.7031
450 12.4972 6.70289 1.4 7.94458 -56.7803 139.326
451 13.2472 6.70289 1.4 8.60716 -58.8642 106.779
452 13.9972 6.70289 1.4 9.28304 -60.6562 20.9409
453 14.7472 6.70289 1.4 9.96953 -65.8471 -150.031
454 15.4972 6.70289 1.4 10.6646 -67.0686 74.2985
455 16.2472 6.70289 1.4 11.3666 -64.6877 -145.432
456 16.9972 6.70289 1.4 12.0744 -71.767 84.53
457 17.7472 6.70289 1.4 12.787 -74.4704 -123.737
458 18.4972 6.70289 1.4 13.5037 -59.828 -60.4555
459 19.2472 6.70289 1.4 14.2238 -68.0737 153.349
460 19.9972 6.70289 1.4 14.9469 -65.6803 40.2695
461 20.7472 6.70289 1.4 15.6724 -69.968 -6.62983
462 21.4972 6.70289 1.4 16.4002 -79.2643 50.3135
463 22.2472 6.70289 1.4 17.1299 -63.0216 120.37
464 22.9972 6.70289 1.4 17.8613 -75.5963 84.9507
465 23.7472 6.70289 1.4 18.5941 -71.3188 54.6909
466 24.4972 6.70289 1.4 19.3283 -69.0739 -100.328
467 25.2472 6.70289 1.4 20.0637 -72.7798 50.3017
468 25.9972 6.70289 1.4 20.8001 -69.2552 -41.3565
469 26.7472 6.70289 1.4 21.5374 -73.4232 -22.7684
470 27.4972 6.70289 1.4 22.2756 -84.3536 131.14
471 28.2472 6.70289 1.4 23.0145 -79.4989 -74.6265
472 28.9972 6.70289 1.4 23.7541 -85.415 -52.6402
473 29.7472 6.70289 1.4 24.4944 -80.944 -70.4251
474 30.4972 6.70289 1.4 25.2353 -90.7868 91.1698
475 -28.0028 7.45289 1.4 33.8808 -104.885 -17.1195
476 -27.2528 7.45289 1.4 33.138 -125.987 -75.9194
477 -26.5028 7.45289 1.4 32.3955 -137.051 56.6812
478 -25.7528 7.45289 1.4 31.6534 -136.424 153.407
479 -25.0028 7.45289 1.4 30.9116 -250 0
480 -24.2528 7.45289 1.4 30.1703 -250 0
481 -23.5028 7.45289 1.4 29.4294 -250 0
482 -22.7528 7.45289 1.4 28.6889 -250 0
483 -22.0028 7.45289 1.4 27.949 -250 0
484 -21.2528 7.45289 1.4 27.2096 -125.07 106.032
485 -20.5028 7.45289 1.4 26.4708 -108.533 -20.8657
486 -19.7528 7.45289 1.4 25.7327 -88.7309 -71.8834
487 -19.0028 7.45289 1.4 24.9952 -101.627 -8.04026
488 -18.2528 7.45289 1.4 24.2586 -90.6219 -52.6749
489 -17.5028 7.45289 1.4 23.5228 -86.2644 18.8759
490 -16.7528 7.45289 1.4 22.7879 -67.7253 86.438
491 -16.0028 7.45289 1.4 22.054 -76.7907 -112.036
492 -15.2528 7.45289 1.4 21.3212 -73.2524 168.124
493 -14.5028 7.45289 1.4 20.5897 -61.1206 -117.625
494 -13.7528 7.45289 1.4 19.8596 -68.2004 149.567
495 -13.0028 7.45289 1.4 19.131 -68.9652 -172.011
496 -12.2528 7.45289 1.4 18.4041 -62.0282 -158.04
497 -11.5028 7.45289 1.4 17.6792 -59.1319 -138.486
498 -10.7528 7.45289 1.4 16.9564 -64.0008 -116.588
499 -10.0028 7.45289 1.4 16.2362 -67.7832 149.247
500 -9.25282 7.45289 1.4 15.5187 -64.2562 -165.132
501 -8.50282 7.45289 1.4 14.8044 -63.0502 130.011
502 -7.75282 7.45289 1.4 14.0939 -56.0916 46.8893
503 -7.00282 7.45289 1.4 13.3877 -58.7564 -71.1843
504 -6.25282 7.45289 1.4 12.6865 -70.1319 -50.465
505 -5.50282 7.45289 1.4 11.9912 -62.4153 97.1174
506 -4.75282 7.45289 1.4 11.3029 -61.7332 14.3763
507 -4.00282 7.45289 1.4 10.6229 -65.3504 -123.276
508 -3.25282 7.45289 1.4 9.95305 -55.7621 54.9677
509 -2.50282 7.45289 1.4 9.29543 -64.5667 -158.865
510 -1.75282 7.45289 1.4 8.65285 -59.6339 16.3684
511 -1.00282 7.45289 1.4 8.02891 -55.9322 40.0687
512 -0.25282 7.45289 1.4 7.42834 -53.4822 45.5633
513 0.49718 7.45289 1.4 6.85725 -49.7615 -45.7143
514 1.24718 7.45289 1.4 6.32366 -52.8141 73.7569
515 1.99718 7.45289 1.4 5.83784 -59.9359 88.4897
516 2.74718 7.45289 1.4 5.41268 -59.1888 -59.8153
517 3.49718 7.45289 1.4 5.06348 -61.3421 31.0666
518 4.24718 7.45289 1.4 4.80683 -51.1195 -175.173
519 4.99718 7.45289 1.4 4.65804 -46.869 -117.275
520 5.74718 7.45289 1.4 4.62753 -58.1899 -45.0976
521 6.49718 7.45289 1.4 4.7176 -42.5682 86.8073
522 7.24718 7.45289 1.4 4.92163 -50.0391 -95.4971
523 7.99718 7.45289 1.4 5.2263 -47.4647 19.9947
524 8.74718 7.45289 1.4 5.61524 -46.9755 -5.75366
525 9.49718 7.45289 1.4 6.07229 -50.3061 45.6492
526 10.2472 7.45289 1.4 6.58327 -49.1173 27.188
527 10.9972 7.45289 1.4 7.1366 -50.6667 177.053
528 11.7472 7.45289 1.4 7.7232 -51.296 -64.3017
529 12.4972 7.45289 1.4 8.33604 -49.2545 -163.935
530 13.2472 7.45289 1.4 8.96974 -67.215 105.841
531 13.9972 7.45289 1.4 9.62019 -54.4906 -70.1307
532 14.7472 7.45289 1.4 10.2842 -57.1675 135.492
533 15.4972 7.45289 1.4 10.9593 -66.7438 52.756
534 16.2472 7.45289 1.4 11.6436 -63.7872 13.1037
535 16.9972 7.45289 1.4 12.3355 -250 0
536 17.7472 7.45289 1.4 13.0339 -83.6613 -149.644
537 18.4972 7.45289 1.4 13.7377 -73.6124 -116.524
538 19.2472 7.45289 1.4 14.4461 -65.497 3.41726
539 19.9972 7.45289 1.4 15.1586 -76.8103 -53.8025
540 20.7472 7.45289 1.4 15.8745 -80.3564 166.864
541 21.4972 7.45289 1.4 16.5934 -68.6654 37.4672
542 22.2472 7.45289 1.4 17.3149 -73.9691 -121.625
543 22.9972 7.45289 1.4 18.0388 -71.6892 64.6887
544 23.7472 7.45289 1.4 18.7647 -73.1561 -166.289
545 24.4972 7.45289 1.4 19.4925 -68.1615 135.224
546 25.2472 7.45289 1.4 20.2219 -76.7146 51.5064
547 25.9972 7.45289 1.4 20.9527 -93.5463 -117.423
548 26.7472 7.45289 1.4 21.6848 -70.437 93.3602
549 27.4972 7.45289 1.4 22.4182 -87.125 -68.7309
550 28.2472 7.45289 1.4 23.1526 -84.8905 -139.553
551 28.9972 7.45289 1.4 23.8879 -81.3087 64.6044
552 29.7472 7.45289 1.4 24.6242 -87.3351 173.684
553 30.4972 7.45289 1.4 25.3612 -86.028 142.313
554 -28.0028 8.20289 1.4 33.9913 -111 -95.5078
555 -27.2528 8.20289 1.4 33.251 -112.127 129.721
556 -26.5028 8.20289 1.4 32.511 -102.893 -141.504
557 -25.7528 8.20289 1.4 31.7716 -143.989 -45.7484
558 -25.0028 8.20289 1.4 31.0327 -138.5 -39.7762
559 -24.2528 8.20289 1.4 30.2943 -250 0
560 -23.5028 8.20289 1.4 29.5565 -250 0
561 -22.7528 8.20289 1.4 28.8193 -124.626 17.811
562 -22.0028 8.20289 1.4 28.0828 -250 0
563 -21.2528 8.20289 1.4 27.347 -250 0
564 -20.5028 8.20289 1.4 26.6121 -102.649 -83.9711
565 -19.7528 8.20289 1.4 25.878 -96.0817 -93.064
566 -19.0028 8.20289 1.4 25.1448 -90.7759 -105.735
567 -18.2528 8.20289 1.4 24.4126 -84.8428 -158.975
568 -17.5028 8.20289 1.4 23.6816 -98.2358 103.383
569 -16.7528 8.20289 1.4 22.9518 -64.8443 94.7306
570 -16.0028 8.20289 1.4 22.2233 -65.2821 71.0987
571 -15.2528 8.20289 1.4 21.4964 -70.9224 46.456
572 -14.5028 8.20289 1.4 20.771 -69.7094 53.6178
573 -13.7528 8.20289 1.4 20.0475 -63.6301 48.4903
574 -13.0028 8.20289 1.4 19.326 -65.3803 98.0884
575 -12.2528 8.20289 1.4 18.6067 -57.7806 -21.3172
576 -11.5028 8.20289 1.4 17.89 -55.1172 -19.5795
577 -10.7528 8.20289 1.4 17.1761 -72.6672 75.8408
578 -10.0028 8.20289 1.4 16.4654 -63.7197 132.772
579 -9.25282 8.20289 1.4 15.7584 -65.4935 41.4448
580 -8.50282 8.20289 1.4 15.0555 -60.9401 86.4442
581 -7.75282 8.20289 1.4 14.3574 -58.5475 -8.62211
582 -7.00282 8.20289 1.4 13.6648 -60.3171 -71.1292
583 -6.25282 8.20289 1.4 12.9786 -73.9566 143.644
584 -5.50282 8.20289 1.4 12.2998 -60.4467 -28.8429
585 -4.75282 8.20289 1.4 11.6298 -56.8644 177.796
586 -4.00282 8.20289 1.4 10.9702 -56.9017 -79.9618
587 -3.25282 8.20289 1.4 10.3229 -58.9581 79.271
588 -2.50282 8.20289 1.4 9.69037 -54.6468 -177.619
589 -1.75282 8.20289 1.4 9.07579 -58.1352 -127.427
590 -1.00282 8.20289 1.4 8.48302 -52.333 -174.614
591 -0.25282 8.20289 1.4 7.91697 -54.2081 94.4283
592 0.49718 8.20289 1.4 7.38377 -57.1807 -159.066
593 1.24718 8.20289 1.4 6.89107 -62.2521 -124.158
594 1.99718 8.20289 1.4 6.44814 -51.6894 123.95
595 2.74718 8.20289 1.4 6.06591 -67.7479 177.957
596 3.49718 8.20289 1.4 5.75648 -63.6634 177.026
597 4.24718 8.20289 1.4 5.53206 -44.6814 -83.8592
598 4.99718 8.20289 1.4 5.40328 -42.495 -148.637
599 5.74718 8.20289 1.4 5.37701 -48.8943 -47.9617
600 6.49718 8.20289 1.4 5.45472 -49.8783 63.8187
601 7.24718 8.20289 1.4 5.63211 -48.0899 -139.788
602 7.99718 8.20289 1.4 5.9002 -46.9551 177.55
603 8.74718 8.20289 1.4 6.24733 -54.3219 -54.8535
604 9.49718 8.20289 1.4 6.66114 -44.5249 134.046
605 10.2472 8.20289 1.4 7.13005 -57.6998 120.382
606 10.9972 8.20289 1.4 7.64391 -49.278 -177.757
607 11.7472 8.20289 1.4 8.19427 -58.4269 -53.7899
608 12.4972 8.20289 1.4 8.77427 -54.5035 -51.3011
609 13.2472 8.20289 1.4 9.3784 -50.3749 -4.69515
610 13.9972 8.20289 1.4 10.0023 -72.1286 92.3803
611 14.7472 8.20289 1.4 10.6425 -67.8492 -113.939
612 15.4972 8.20289 1.4 11.2962 -58.068 -34.8586
613 16.2472 8.20289 1.4 11.9612 -59.0555 -22.1482
614 16.9972 8.20289 1.4 12.6358 -57.6833 94.647
615 17.7472 8.20289 1.4 13.3184 -68.255 145.102
616 18.4972 8.20289 1.4 14.0079 -81.5624 -80.3544
617 19.2472 8.20289 1.4 14.7033 -76.3404 25.576
618 19.9972 8.20289 1.4 15.4039 -70.9127 -25.4276
619 20.7472 8.20289 1.4 16.1089 -73.1131 -103.736
620 21.4972 8.20289 1.4 16.8178 -67.3213 -46.3021
621 22.2472 8.20289 1.4 17.5301 -84.5734 -179.01
622 22.9972 8.20289 1.4 18.2455 -73.8259 109.049
623 23.7472 8.20289 1.4 18.9635 -70.3644 -29.5728
624 24.4972 8.20289 1.4 19.6839 -68.9821 -156.968
625 25.2472 8.20289 1.4 20.4064 -73.8076 141.244
626 25.9972 8.20289 1.4 21.1309 -73.0058 -56.6686
627 26.7472 8.20289 1.4 21.857 -81.1416 106.902
628 27.4972 8.20289 1.4 22.5848 -85.2357 -88.3187
629 28.2472 8.20289 1.4 23.3139 -94.1495 135.589
630 28.9972 8.20289 1.4 24.0443 -85.311 124.892
631 29.7472 8.20289 1.4 24.7759 -86.2127 133.913
632 30.4972 8.20289 1.4 25.5086 -85.7868 -60.9098
633 -28.0028 8.95289 1.4 34.1179 -114.907 10.6596
634 -27.2528 8.95289 1.4 33.3804 -115.41 -72.6127
635 -26.5028 8.95289 1.4 32.6434 -128.502 -134.089
636 -25.7528 8.95289 1.4 31.907 -112.563 114.344
637 -25.0028 8.95289 1.4 31.1713 -102.728 141.326
638 -24.2528 8.95289 1.4 30.4363 -179.481 -97.818
639 -23.5028 8.95289 1.4 29.702 -250 0
640 -22.7528 8.95289 1.4 28.9685 -125.6 2.61655
641 -22.0028 8.95289 1.4 28.2359 -148.676 -77.1003
642 -21.2528 8.95289 1.4 27.5042 -144.863 -5.70828
643 -20.5028 8.95289 1.4 26.7736 -91.7452 50.4588
644 -19.7528 8.95289 1.4 26.044 -91.534 66.2232
645 -19.0028 8.95289 1.4 25.3157 -97.7696 -117.381
646 -18.2528 8.95289 1.4 24.5886 -99.1417 -63.9202
647 -17.5028 8.95289 1.4 23.863 -91.3189 -144.26
648 -16.7528 8.95289 1.4 23.1389 -68.0688 -69.5278
649 -16.0028 8.95289 1.4 22.4165 -62.0987 -161.898
650 -15.2528 8.95289 1.4 21.696 -69.0441 -155.896
651 -14.5028 8.95289 1.4 20.9776 -68.359 -173.294
652 -13.7528 8.95289 1.4 20.2614 -60.7032 107.384
653 -13.0028 8.95289 1.4 19.5478 -58.3498 81.1431
654 -12.2528 8.95289 1.4 18.837 -61.0695 10.9172
655 -11.5028 8.95289 1.4 18.1294 -67.6639 94.7664
656 -10.7528 8.95289 1.4 17.4253 -57.8565 -132.155
657 -10.0028 8.95289 1.4 16.7253 -58.0693 -154.253
658 -9.25282 8.95289 1.4 16.0297 -65.4305 -125.146
659 -8.50282 8.95289 1.4 15.3392 -57.551 -42.4069
660 -7.75282 8.95289 1.4 14.6547 -64.6838 -97.076
661 -7.00282 8.95289 1.4 13.9768 -64.3002 13.6567
662 -6.25282 8.95289 1.4 13.3067 -56.9923 -123.894
663 -5.50282 8.95289 1.4 12.6455 -54.7226 36.8294
664 -4.75282 8.95289 1.4 11.9948 -56.6422 -145.463
665 -4.00282 8.95289 1.4 11.3564 -61.8396 -96.2563
666 -3.25282 8.95289 1.4 10.7324 -60.8366 6.6738
667 -2.50282 8.95289 1.4 10.1255 -55.1267 -29.7961
668 -1.75282 8.95289 1.4 9.53903 -55.7153 -43.1566
669 -1.00282 8.95289 1.4 8.97691 -57.7229 -121.097
670 -0.25282 8.95289 1.4 8.44402 -60.4339 34.8514
671 0.49718 8.95289 1.4 7.94627 -58.8756 -26.9965
672 1.24718 8.95289 1.4 7.49066 -66.865 -63.3029
673 1.99718 8.95289 1.4 7.08532 -56.1223 55.3992
674 2.74718 8.95289 1.4 6.73932 -52.1948 48.0737
675 3.49718 8.95289 1.4 6.46221 -69.7844 -60.6944
676 4.24718 8.95289 1.4 6.26314 -57.1938 104.372
677 4.99718 8.95289 1.4 6.14969 -42.697 177.423
678 5.74718 8.95289 1.4 6.12661 -47.1188 -22.5702
679 6.49718 8.95289 1.4 6.19493 -47.2026 132.083
680 7.24718 8.95289 1.4 6.35168 -47.7463 -65.0109
681 7.99718 8.95289 1.4 6.59057 -54.2328 -112.779
682 8.74718 8.95289 1.4 6.90306 -57.3408 144.083
683 9.49718 8.95289 1.4 7.2797 -47.6491 23.9536
684 10.2472 8.95289 1.4 7.71108 -70.5542 -173.093
685 10.9972 8.95289 1.4 8.18856 -57.2657 -6.17643
686 11.7472 8.95289 1.4 8.70455 -61.1885 -118.541
687 12.4972 8.95289 1.4 9.25262 -51.8127 29.2752
688 13.2472 8.95289 1.4 9.82739 -65.0316 99.9851
689 13.9972 8.95289 1.4 10.4245 -60.5638 145.629
690 14.7472 8.95289 1.4 11.0402 -50.5037 145.768
691 15.4972 8.95289 1.4 11.6717 -55.0375 -178.363
692 16.2472 8.95289 1.4 12.3164 -66.6671 159.208
693 16.9972 8.95289 1.4 12.9725 -61.6352 33.1164
694 17.7472 8.95289 1.4 13.6383 -68.1102 107.774
695 18.4972 8.95289 1.4 14.3124 -71.3297 74.9403
696 19.2472 8.95289 1.4 14.9937 -87.2527 -175.354
697 19.9972 8.95289 1.4 15.6813 -64.1455 170.395
698 20.7472 8.95289 1.4 16.3744 -87.5439 -123.09
699 21.4972 8.95289 1.4 17.0722 -78.9399 71.038
700 22.2472 8.95289 1.4 17.7744 -76.7852 -53.2217
701 22.9972 8.95289 1.4 18.4803 -69.0369 -90.2242
702 23.7472 8.95289 1.4 19.1895 -74.6929 147.946
703 24.4972 8.95289 1.4 19.9017 -73.7209 -71.0351
704 25.2472 8.95289 1.4 20.6166 -72.9495 -137.252
705 25.9972 8.95289 1.4 21.3339 -83.1887 21.0212
706 26.7472 8.95289 1.4 22.0534 -90.8652 45.409
707 27.4972 8.95289 1.4 22.7749 -93.6559 148.255
708 28.2472 8.95289 1.4 23.4981 -86.468 -48.894
709 28.9972 8.95289 1.4 24.223 -85.7807 -91.4096
710 29.7472 8.95289 1.4 24.9494 -85.4555 -43.7885
711 30.4972 8.95289 1.4 25.6771 -84.3387 109.481
712 -28.0028 9.70289 1.4 34.2605 -111.92 32.3127
713 -27.2528 9.70289 1.4 33.5261 -112.738 -14.5301
714 -26.5028 9.70289 1.4 32.7924 -105.287 -146.704
715 -25.7528 9.70289 1.4 32.0594 -116.9 -139.958
716 -25.0028 9.70289 1.4 31.3273 -114.789 93.0927
717 -24.2528 9.70289 1.4 30.596 -116.062 92.9137
718 -23.5028 9.70289 1.4 29.8656 -110.205 -53.3911
719 -22.7528 9.70289 1.4 29.1363 -113.275 -161.726
720 -22.0028 9.70289 1.4 28.408 -119.999 2.82242
721 -21.2528 9.70289 1.4 27.6809 -108.955 103.708
722 -20.5028 9.70289 1.4 26.955 -93.4295 6.43698
723 -19.7528 9.70289 1.4 26.2305 -90.0131 75.0272
724 -19.0028 9.70289 1.4 25.5075 -103.778 57.4723
725 -18.2528 9.70289 1.4 24.786 -117.997 -89.4376
726 -17.5028 9.70289 1.4 24.0664 -90.3822 83.3986
727 -16.7528 9.70289 1.4 23.3486 -70.5255 -124.607
728 -16.0028 9.70289 1.4 22.6329 -62.7854 -33.9183
729 -15.2528 9.70289 1.4 21.9195 -64.9228 -61.7603
730 -14.5028 9.70289 1.4 21.2087 -65.9229 142.757
731 -13.7528 9.70289 1.4 20.5006 -79.1789 -68.2724
732 -13.0028 9.70289 1.4 19.7956 -61.6855 111.939
733 -12.2528 9.70289 1.4 19.094 -61.9659 -68.4243
734 -11.5028 9.70289 1.4 18.3963 -61.831 -76.4044
735 -10.7528 9.70289 1.4 17.7028 -68.5802 170.862
736 -10.0028 9.70289 1.4 17.0142 -59.0898 -30.0179
737 -9.25282 9.70289 1.4 16.3309 -60.4974 -55.4217
738 -8.50282 9.70289 1.4 15.6538 -59.3367 124.298
739 -7.75282 9.70289 1.4 14.9836 -67.3452 -80.5626
740 -7.00282 9.70289 1.4 14.3213 -64.1379 117.907
741 -6.25282 9.70289 1.4 13.6681 -58.1333 -172.705
742 -5.50282 9.70289 1.4 13.0253 -60.5804 26.0753
743 -4.75282 9.70289 1.4 12.3945 -58.0884 85.6037
744 -4.00282 9.70289 1.4 11.7778 -55.3676 149.937
745 -3.25282 9.70289 1.4 11.1773 -56.3519 141.865
746 -2.50282 9.70289 1.4 10.596 -59.1038 43.7877
747 -1.75282 9.70289 1.4 10.037 -57.1781 -4.85685
748 -1.00282 9.70289 1.4 9.50437 -59.6811 77.1966
749 -0.25282 9.70289 1.4 9.00276 -56.9636 -131.593
750 0.49718 9.70289 1.4 8.53765 -63.4593 109.49
751 1.24718 9.70289 1.4 8.11531 -56.058 -151.882
752 1.99718 9.70289 1.4 7.74273 -51.1206 -50.8185
753 2.74718 9.70289 1.4 7.42742 -57.7694 107.538
754 3.49718 9.70289 1.4 7.17693 -58.2001 136.185
755 4.24718 9.70289 1.4 6.99822 -50.9515 -160.016
756 4.99718 9.70289 1.4 6.89687 -57.9385 93.11
757 5.74718 9.70289 1.4 6.8763 -55.1841 -43.3858
758 6.49718 9.70289 1.4 6.93724 -60.6026 49.1879
759 7.24718 9.70289 1.4 7.07757 -47.8735 -100.064
760 7.99718 9.70289 1.4 7.29272 -53.6532 68.8367
761 8.74718 9.70289 1.4 7.57631 -58.8813 -93.6112
762 9.49718 9.70289 1.4 7.921 -51.9544 2.98133
763 10.2472 9.70289 1.4 8.31919 -57.5246 -5.52517
764 10.9972 9.70289 1.4 8.7636 -56.8673 138.177
765 11.7472 9.70289 1.4 9.24756 -51.5279 71.6474
766 12.4972 9.70289 1.4 9.7652 -57.2363 -9.02442
767 13.2472 9.70289 1.4 10.3114 -56.0548 178.641
768 13.9972 9.70289 1.4 10.882 -55.1027 -37.8943
769 14.7472 9.70289 1.4 11.4732 -60.2719 69.4548
770 15.4972 9.70289 1.4 12.0821 -58.915 91.4665
771 16.2472 9.70289 1.4 12.706 -62.7656 -109.23
772 16.9972 9.70289 1.4 13.343 -73.1497 64.3536
773 17.7472 9.70289 1.4 13.9911 -76.5784 -103.341
774 18.4972 9.70289 1.4 14.649 -67.7277 156.272
775 19.2472 9.70289 1.4 15.3153 -73.0431 40.7908
776 19.9972 9.70289 1.4 15.9891 -83.447 70.7367
777 20.7472 9.70289 1.4 16.6694 -75.1641 20.1326
778 21.4972 9.70289 1.4 17.3554 -69.6393 -131.197
779 22.2472 9.70289 1.4 18.0465 -70.6524 155.461
780 22.9972 9.70289 1.4 18.7422 -70.0429 5.16393
781 23.7472 9.70289 1.4 19.4418 -71.773 -158.883
782 24.4972 9.70289 1.4 20.1451 -68.0822 -8.437
783 25.2472 9.70289 1.4 20.8517 -90.6813 -44.4912
784 25.9972 9.70289 1.4 21.5612 -91.7637 -113.635
785 26.7472 9.70289 1.4 22.2733 -88.6886 29.6699
786 27.4972 9.70289 1.4 22.9879 -106.066 28.0582
787 28.2472 9.70289 1.4 23.7046 -86.7697 73.2469
788 28.9972 9.70289 1.4 24.4234 -87.5173 -125.67
789 29.7472 9.70289 1.4 25.144 -83.4661 105.02
790 30.4972 9.70289 1.4 25.8662 -82.868 -10.2912
791 -28.0028 10.4529 1.4 34.4188 -119.651 -114.64
792 -27.2528 10.4529 1.4 33.6878 -123.221 -89.0498
793 -26.5028 10.4529 1.4 32.9577 -129.407 -120.337
794 -25.7528 10.4529 1.4 32.2285 -128.463 -155.261
795 -25.0028 10.4529 1.4 31.5003 -130.24 89.2763
796 -24.2528 10.4529 1.4 30.7732 -102.862 -155.848
797 -23.5028 10.4529 1.4 30.0471 -103.586 -2.47441
798 -22.7528 10.4529 1.4 29.3223 -113.222 167.858
799 -22.0028 10.4529 1.4 28.5987 -103.191 -83.7715
800 -21.2528 10.4529 1.4 27.8766 -128.668 171.082
801 -20.5028 10.4529 1.4 27.156 -94.17 113.788
802 -19.7528 10.4529 1.4 26.437 -93.0752 -75.6818
803 -19.0028 10.4529 1.4 25.7197 -90.1437 -135.381
804 -18.2528 10.4529 1.4 25.0044 -103.042 133.348
805 -17.5028 10.4529 1.4 24.2912 -110.541 -53.0841
806 -16.7528 10.4529 1.4 23.5803 -77.1203 -36.6464
807 -16.0028 10.4529 1.4 22.8719 -67.4808 27.4585
808 -15.2528 10.4529 1.4 22.1662 -72.4796 57.6798
809 -14.5028 10.4529 1.4 21.4635 -70.4142 -166.857
810 -13.7528 10.4529 1.4 20.7641 -61.2646 122.809
811 -13.0028 10.4529 1.4 20.0683 -66.6755 -4.80349
812 -12.2528 10.4529 1.4 19.3767 -58.0755 -126.168
813 -11.5028 10.4529 1.4 18.6895 -61.8448 99.8214
814 -10.7528 10.4529 1.4 18.0073 -64.4387 5.08708
815 -10.0028 10.4529 1.4 17.3308 -64.9344 147.461
816 -9.25282 10.4529 1.4 16.6605 -61.0652 111.747
817 -8.50282 10.4529 1.4 15.9973 -58.6612 -146.821
818 -7.75282 10.4529 1.4 15.3421 -61.6746 -12.3697
819 -7.00282 10.4529 1.4 14.696 -58.0786 50.8706
820 -6.25282 10.4529 1.4 14.0602 -68.4241 -164.571
821 -5.50282 10.4529 1.4 13.4362 -63.0562 -53.8817
822 -4.75282 10.4529 1.4 12.8257 -57.9117 -25.4669
823 -4.00282 10.4529 1.4 12.2307 -52.8383 -90.9714
824 -3.25282 10.4529 1.4 11.6536 -55.4891 -153.089
825 -2.50282 10.4529 1.4 11.0972 -57.1746 83.8436
826 -1.75282 10.4529 1.4 10.5648 -62.5295 -132.717
827 -1.00282 10.4529 1.4 10.0601 -60.1082 10.0494
828 -0.25282 10.4529 1.4 9.58764 -53.0105 -86.1733
829 0.49718 10.4529 1.4 9.1523 -61.8377 50.5206
830 1.24718 10.4529 1.4 8.75964 -60.6096 -73.5293
831 1.99718 10.4529 1.4 8.41565 -54.6871 -166.991
832 2.74718 10.4529 1.4 8.12649 -59.9897 38.2059
833 3.49718 10.4529 1.4 7.8982 -69.132 151.966
834 4.24718 10.4529 1.4 7.73617 -65.6404 -123.944
835 4.99718 10.4529 1.4 7.64461 -56.0271 -168.968
836 5.74718 10.4529 1.4 7.62606 -59.9959 120.705
837 6.49718 10.4529 1.4 7.68104 -60.5262 -60.5793
838 7.24718 10.4529 1.4 7.80802 -53.2036 -60.2598
839 7.99718 10.4529 1.4 8.00356 -53.4867 122.319
840 8.74718 10.4529 1.4 8.26279 -56.3024 179.159
841 9.49718 10.4529 1.4 8.57994 -54.8534 25.7697
842 10.2472 10.4529 1.4 8.94886 -62.5418 -116.65
843 10.9972 10.4529 1.4 9.36343 -59.2399 -133.422
844 11.7472 10.4529 1.4 9.81787 -71.856 -8.258
845 12.4972 10.4529 1.4 10.3069 -51.9799 -169.77
846 13.2472 10.4529 1.4 10.8258 -55.388 62.6628
847 13.9972 10.4529 1.4 11.3706 -54.7035 -9.06966
848 14.7472 10.4529 1.4 11.9376 -63.6796 20.3808
849 15.4972 10.4529 1.4 12.5239 -58.346 110.829
850 16.2472 10.4529 1.4 13.1269 -61.3172 -126.543
851 16.9972 10.4529 1.4 13.7444 -78.6171 -82.5856
852 17.7472 10.4529 1.4 14.3744 -250 0
853 18.4972 10.4529 1.4 15.0155 -65.8186 36.4349
854 19.2472 10.4529 1.4 15.6663 -66.5051 -106.099
855 19.9972 10.4529 1.4 16.3256 -78.5136 -95.1307
856 20.7472 10.4529 1.4 16.9924 -71.7857 109.529
857 21.4972 10.4529 1.4 17.6659 -73.5821 67.2287
858 22.2472 10.4529 1.4 18.3453 -74.1454 -88.976
859 22.9972 10.4529 1.4 19.03 -68.6471 62.7476
860 23.7472 10.4529 1.4 19.7195 -79.968 -149.089
861 24.4972 10.4529 1.4 20.4132 -71.131 -24.3669
862 25.2472 10.4529 1.4 21.1108 -80.9398 155.61
863 25.9972 10.4529 1.4 21.8119 -95.1971 -164.003
864 26.7472 10.4529 1.4 22.5161 -77.4582 43.0702
865 27.4972 10.4529 1.4 23.2232 -79.0416 -156.126
866 28.2472 10.4529 1.4 23.9329 -93.5894 -52.0436
867 28.9972 10.4529 1.4 24.645 -82.0663 -107.08
868 29.7472 10.4529 1.4 25.3593 -92.0811 -161.255
869 30.4972 10.4529 1.4 26.0755 -90.5791 -35.1004
870 -28.0028 11.2029 1.4 34.5927 -116.776 -89.736
871 -27.2528 11.2029 1.4 33.8655 -116.491 -145.787
872 -26.5028 11.2029 1.4 33.1393 -250 0
873 -25.7528 11.2029 1.4 32.4142 -250 0
874 -25.0028 11.2029 1.4 31.6902 -250 0
875 -24.2528 11.2029 1.4 30.9675 -92.6938 103.286
876 -23.5028 11.2029 1.4 30.2461 -97.4043 54.8546
877 -22.7528 11.2029 1.4 29.5262 -86.8472 -66.5712
878 -22.0028 11.2029 1.4 28.8077 -92.3641 21.0401
879 -21.2528 11.2029 1.4 28.091 -250 0
880 -20.5028 11.2029 1.4 27.376 -98.676 108.264
881 -19.7528 11.2029 1.4 26.6629 -79.9421 -34.974
882 -19.0028 11.2029 1.4 25.9519 -79.1725 -90.6298
883 -18.2528 11.2029 1.4 25.2432 -79.4254 -12.17
884 -17.5028 11.2029 1.4 24.5369 -88.8696 -69.5171
885 -16.7528 11.2029 1.4 23.8333 -250 0
886 -16.0028 11.2029 1.4 23.1327 -91.9392 141.581
887 -15.2528 11.2029 1.4 22.4352 -250 0
888 -14.5028 11.2029 1.4 21.7412 -250 0
889 -13.7528 11.2029 1.4 21.051 -97.0299 140.29
890 -13.0028 11.2029 1.4 20.3651 -104.185 102.486
891 -12.2528 11.2029 1.4 19.6838 -85.3958 -34.6915
892 -11.5028 11.2029 1.4 19.0078 -68.6489 -95.127
893 -10.7528 11.2029 1.4 18.3374 -85.6599 161.585
894 -10.0028 11.2029 1.4 17.6735 -86.0556 -7.37214
895 -9.25282 11.2029 1.4 17.0168 -250 0
896 -8.50282 11.2029 1.4 16.368 -250 0
897 -7.75282 11.2029 1.4 15.7283 -250 0
898 -7.00282 11.2029 1.4 15.0987 -83.6882 20.0858
899 -6.25282 11.2029 1.4 14.4806 -68.4973 174.207
900 -5.50282 11.2029 1.4 13.8755 -76.7075 -25.2566
901 -4.75282 11.2029 1.4 13.2852 -75.7563 87.4601
902 -4.00282 11.2029 1.4 12.7117 -60.7196 39.015
903 -3.25282 11.2029 1.4 12.1575 -61.2982 -104.517
904 -2.50282 11.2029 1.4 11.6252 -63.5891 65.957
905 -1.75282 11.2029 1.4 11.1181 -63.1467 95.645
906 -1.00282 11.2029 1.4 10.6398 -69.6575 129.246
907 -0.25282 11.2029 1.4 10.1942 -65.9193 -75.3269
908 0.49718 11.2029 1.4 9.78585 -59.0176 -7.29987
909 1.24718 11.2029 1.4 9.41964 -65.6985 114.701
910 1.99718 11.2029 1.4 9.10062 -59.7621 48.8835
911 2.74718 11.2029 1.4 8.83391 -63.6282 -41.8161
912 3.49718 11.2029 1.4 8.62437 -57.7671 53.7497
913 4.24718 11.2029 1.4 8.47623 -57.7036 80.5544
914 4.99718 11.2029 1.4 8.39274 -55.5071 101.271
915 5.74718 11.2029 1.4 8.37585 -51.8651 83.7837
916 6.49718 11.2029 1.4 8.42595 -57.501 126.448
917 7.24718 11.2029 1.4 8.54186 -47.7257 -56.9374
918 7.99718 11.2029 1.4 8.72096 -57.9087 98.0518
919 8.74718 11.2029 1.4 8.95945 -50.2401 142.295
920 9.49718 11.2029 1.4 9.25276 -60.9937 -50.4477
921 10.2472 11.2029 1.4 9.59585 -57.8232 154.641
922 10.9972 11.2029 1.4 9.98359 -58.1948 119.836
923 11.7472 11.2029 1.4 10.411 -81.7322 -149.265
924 12.4972 11.2029 1.4 10.8734 -69.3575 108.443
925 13.2472 11.2029 1.4 11.3665 -59.6885 35.1262
926 13.9972 11.2029 1.4 11.8865 -83.0331 -15.4938
927 14.7472 11.2029 1.4 12.43 -65.0008 -125.245
928 15.4972 11.2029 1.4 12.9941 -65.9254 152.247
929 16.2472 11.2029 1.4 13.5762 -70.8845 84.1469
930 16.9972 11.2029 1.4 14.1741 -77.7297 155.245
931 17.7472 11.2029 1.4 14.7859 -66.4121 -168.584
932 18.4972 11.2029 1.4 15.4099 -66.8949 81.3935
933 19.2472 11.2029 1.4 16.0447 -65.3623 -165.328
934 19.9972 11.2029 1.4 16.689 -73.5077 69.3081
935 20.7472 11.2029 1.4 17.3418 -70.1455 -34.7165
936 21.4972 11.2029 1.4 18.0023 -74.1221 158.718
937 22.2472 11.2029 1.4 18.6694 -67.5103 -17.9661
938 22.9972 11.2029 1.4 19.3427 -90.4299 67.4226
939 23.7472 11.2029 1.4 20.0214 -72.5162 -146.38
940 24.4972 11.2029 1.4 20.705 -77.7882 102.187
941 25.2472 11.2029 1.4 21.3931 -89.7631 -45.1272
942 25.9972 11.2029 1.4 22.0852 -85.4057 82.8579
943 26.7472 11.2029 1.4 22.781 -75.8875 -26.968
944 27.4972 11.2029 1.4 23.4801 -79.9698 -75.7256
945 28.2472 11.2029 1.4 24.1823 -90.6864 118.357
946 28.9972 11.2029 1.4 24.8872 -100.162 2.90269
947 29.7472 11.2029 1.4 25.5947 -85.8734 7.97152
948 30.4972 11.2029 1.4 26.3046 -96.8786 94.5964
949 -28.0028 11.9529 1.4 34.7818 -95.7494 -144.942
950 -27.2528 11.9529 1.4 34.0587 -106.488 -131.262
951 -26.5028 11.9529 1.4 33.3367 -96.5971 -0.81529
952 -25.7528 11.9529 1.4 32.616 -105.376 -50.5713
953 -25.0028 11.9529 1.4 31.8966 -110.479 -29.8536
954 -24.2528 11.9529 1.4 31.1787 -94.4447 -32.0437
955 -23.5028 11.9529 1.4 30.4623 -89.7125 105.313
956 -22.7528 11.9529 1.4 29.7476 -78.054 111.443
957 -22.0028 11.9529 1.4 29.0346 -76.7026 87.6149
958 -21.2528 11.9529 1.4 28.3236 -79.2898 -151.563
959 -20.5028 11.9529 1.4 27.6146 -79.2922 -63.284
960 -19.7528 11.9529 1.4 26.9079 -82.0277 0.47715
961 -19.0028 11.9529 1.4 26.2036 -79.9991 4.0817
962 -18.2528 11.9529 1.4 25.5018 -84.182 152.736
963 -17.5028 11.9529 1.4 24.8029 -79.7756 -179.422
964 -16.7528 11.9529 1.4 24.1071 -79.6624 -97.7256
965 -16.0028 11.9529 1.4 23.4146 -83.3415 -116.296
966 -15.2528 11.9529 1.4 22.7257 -88.8609 -156.565
967 -14.5028 11.9529 1.4 22.0409 -75.6271 77.9001
968 -13.7528 11.9529 1.4 21.3604 -75.419 13.0731
969 -13.0028 11.9529 1.4 20.6848 -72.5393 -107.946
970 -12.2528 11.9529 1.4 20.0144 -91.0263 -14.9932
971 -11.5028 11.9529 1.4 19.3499 -76.5521 -10.3584
972 -10.7528 11.9529 1.4 18.6918 -65.5194 142.395
973 -10.0028 11.9529 1.4 18.041 -76.3036 90.3102
974 -9.25282 11.9529 1.4 17.3981 -71.6486 130.628
975 -8.50282 11.9529 1.4 16.7641 -90.3436 109.386
976 -7.75282 11.9529 1.4 16.1401 -83.2898 17.7769
977 -7.00282 11.9529 1.4 15.5272 -68.6376 -57.0914
978 -6.25282 11.9529 1.4 14.9268 -69.8134 -6.27604
979 -5.50282 11.9529 1.4 14.3406 -61.252 -82.6379
980 -4.75282 11.9529 1.4 13.7702 -60.7421 151.571
981 -4.00282 11.9529 1.4 13.2178 -58.4483 -23.9807
982 -3.25282 11.9529 1.4 12.6857 -61.6402 -171.197
983 -2.50282 11.9529 1.4 12.1766 -63.6204 -129.924
984 -1.75282 11.9529 1.4 11.6934 -66.6846 -137.462
985 -1.00282 11.9529 1.4 11.2396 -69.4174 144.312
986 -0.25282 11.9529 1.4 10.8187 -64.9654 177.829
987 0.49718 11.9529 1.4 10.4348 -70.8207 -166.244
988 1.24718 11.9529 1.4 10.0922 -60.479 155.776
989 1.99718 11.9529 1.4 9.79512 -60.7208 -47.2395
990 2.74718 11.9529 1.4 9.54784 -59.0165 -145.562
991 3.49718 11.9529 1.4 9.3543 -56.4256 72.966
992 4.24718 11.9529 1.4 9.2179 -54.7041 75.5744
993 4.99718 11.9529 1.4 9.14119 -57.0225 127.053
994 5.74718 11.9529 1.4 9.12568 -59.5749 4.57079
995 6.49718 11.9529 1.4 9.17168 -58.3944 167.982
996 7.24718 11.9529 1.4 9.27828 -53.5335 -49.5327
997 7.99718 11.9529 1.4 9.44342 -60.0185 97.6117
998 8.74718 11.9529 1.4 9.66411 -55.6923 -119.108
999 9.49718 11.9529 1.4 9.93663 -56.7102 -141.682
1000 10.2472 11.9529 1.4 10.2569 -59.0572 -133.988
1001 10.9972 11.9529 1.4 10.6205 -71.7762 -28.9897
1002 11.7472 11.9529 1.4 11.0232 -73.7057 40.6182
1003 12.4972 11.9529 1.4 11.461 -65.6498 161.414
1004 13.2472 11.9529 1.4 11.9298 -63.6176 -109.389
1005 13.9972 11.9529 1.4 12.4263 -58.0994 111.9
1006 14.7472 11.9529 1.4 12.9472 -58.4256 9.54564
1007 15.4972 11.9529 1.4 13.4896 -60.6248 -95.0777
1008 16.2472 11.9529 1.4 14.0512 -82.4612 70.5247
1009 16.9972 11.9529 1.4 14.6297 -69.1997 -108.218
1010 17.7472 11.9529 1.4 15.2232 -75.6938 -102.029
1011 18.4972 11.9529 1.4 15.83 -73.5544 5.61358
1012 19.2472 11.9529 1.4 16.4485 -69.306 -100.621
1013 19.9972 11.9529 1.4 17.0776 -69.2886 155.747
1014 20.7472 11.9529 1.4 17.7162 -66.7257 31.3885
1015 21.4972 11.9529 1.4 18.3631 -85.9722 -34.6118
1016 22.2472 11.9529 1.4 19.0177 -82.3663 30.5496
1017 22.9972 11.9529 1.4 19.679 -65.1806 138.877
1018 23.7472 11.9529 1.4 20.3465 -78.0005 -69.6048
1019 24.4972 11.9529 1.4 21.0195 -77.0252 -57.6813
1020 25.2472 11.9529 1.4 21.6976 -84.7532 -45.1963
1021 25.9972 11.9529 1.4 22.3803 -95.2525 -132.395
1022 26.7472 11.9529 1.4 23.0672 -78.9129 95.6681
1023 27.4972 11.9529 1.4 23.7579 -89.9107 -86.2179
1024 28.2472 11.9529 1.4 24.4521 -90.3492 -145.743
1025 28.9972 11.9529 1.4 25.1495 -99.6729 -11.4676
1026 29.7472 11.9529 1.4 25.8498 -88.8373 -176.677
1027 30.4972 11.9529 1.4 26.5529 -119.407 -179.939
1028 -28.0028 12.7029 1.4 34.986 -110.743 142.086
1029 -27.2528 12.7029 1.4 34.2672 -106.053 15.6292
1030 -26.5028 12.7029 1.4 33.5497 -96.9124 -18.4452
1031 -25.7528 12.7029 1.4 32.8337 -100.446 37.9055
1032 -25.0028 12.7029 1.4 32.1192 -100.946 77.8956
1033 -24.2528 12.7029 1.4 31.4063 -100.711 -155.954
1034 -23.5028 12.7029 1.4 30.6953 -77.7121 -69.7244
1035 -22.7528 12.7029 1.4 29.9861 -89.0951 48.0298
1036 -22.0028 12.7029 1.4 29.279 -84.0854 63.1413
1037 -21.2528 12.7029 1.4 28.574 -80.659 -52.8757
1038 -20.5028 12.7029 1.4 27.8714 -85.2001 -53.0352
1039 -19.7528 12.7029 1.4 27.1714 -82.4491 39.0334
1040 -19.0028 12.7029 1.4 26.474 -91.6399 -159.686
1041 -18.2528 12.7029 1.4 25.7797 -80.1691 156.695
1042 -17.5028 12.7029 1.4 25.0885 -76.5399 -58.1149
1043 -16.7528 12.7029 1.4 24.4008 -73.4421 -35.9736
1044 -16.0028 12.7029 1.4 23.7169 -75.9596 27.725
1045 -15.2528 12.7029 1.4 23.0371 -75.2249 16.6526
1046 -14.5028 12.7029 1.4 22.3618 -78.6571 161.852
1047 -13.7528 12.7029 1.4 21.6914 -71.5974 13.805
1048 -13.0028 12.7029 1.4 21.0264 -80.5946 128.086
1049 -12.2528 12.7029 1.4 20.3672 -77.3505 5.38798
1050 -11.5028 12.7029 1.4 19.7146 -73.2882 -150.706
1051 -10.7528 12.7029 1.4 19.0692 -69.3091 -90.8244
1052 -10.0028 12.7029 1.4 18.4316 -90.8129 -125.611
1053 -9.25282 12.7029 1.4 17.8029 -65.1327 -111.992
1054 -8.50282 12.7029 1.4 17.1838 -87.135 -52.986
1055 -7.75282 12.7029 1.4 16.5756 -79.1926 154.884
1056 -7.00282 12.7029 1.4 15.9794 -65.9321 94.3839
1057 -6.25282 12.7029 1.4 15.3967 -62.748 41.5495
1058 -5.50282 12.7029 1.4 14.829 -64.035 -106.644
1059 -4.75282 12.7029 1.4 14.2782 -64.5256 99.3254
1060 -4.00282 12.7029 1.4 13.7462 -75.6617 -103.532
1061 -3.25282 12.7029 1.4 13.2354 -75.2786 -176.941
1062 -2.50282 12.7029 1.4 12.7482 -61.9112 -34.2454
1063 -1.75282 12.7029 1.4 12.2876 -82.3166 -3.18813
1064 -1.00282 12.7029 1.4 11.8565 -62.8999 1.21847
1065 -0.25282 12.7029 1.4 11.4583 -63.7883 75.2337
1066 0.49718 12.7029 1.4 11.0966 -69.0072 -164.967
1067 1.24718 12.7029 1.4 10.775 -73.8293 148.425
1068 1.99718 12.7029 1.4 10.4973 -65.7314 -53.928
1069 2.74718 12.7029 1.4 10.2669 -68.2351 154.429
1070 3.49718 12.7029 1.4 10.0872 -72.9382 -169.648
1071 4.24718 12.7029 1.4 9.96081 -56.7883 76.6759
1072 4.99718 12.7029 1.4 9.88987 -51.6764 81.504
1073 5.74718 12.7029 1.4 9.87554 -53.2165 -111.062
1074 6.49718 12.7029 1.4 9.91806 -51.5843 -177.624
1075 7.24718 12.7029 1.4 10.0167 -59.3441 156.983
1076 7.99718 12.7029 1.4 10.1699 -54.427 126.515
1077 8.74718 12.7029 1.4 10.3751 -49.178 -64.6429
1078 9.49718 12.7029 1.4 10.6294 -73.7675 -25.4938
1079 10.2472 12.7029 1.4 10.9294 -53.6387 62.0241
1080 10.9972 12.7029 1.4 11.2714 -59.8246 -133.553
1081 11.7472 12.7029 1.4 11.6516 -57.9403 -163.87
1082 12.4972 12.7029 1.4 12.0666 -55.8271 61.93
1083 13.2472 12.7029 1.4 12.5127 -65.9884 -23.5172
1084 13.9972 12.7029 1.4 12.9869 -74.3798 120.98
1085 14.7472 12.7029 1.4 13.4862 -59.2002 -147.841
1086 15.4972 12.7029 1.4 14.0078 -63.0219 111.456
1087 16.2472 12.7029 1.4 14.5494 -59.0589 10.7929
1088 16.9972 12.7029 1.4 15.1088 -62.5227 168.463
1089 17.7472 12.7029 1.4 15.6842 -78.15 96.9426
1090 18.4972 12.7029 1.4 16.2738 -64.7388 93.9161
1091 19.2472 12.7029 1.4 16.8761 -69.4535 82.8404
1092 19.9972 12.7029 1.4 17.4898 -66.9832 -25.603
1093 20.7472 12.7029 1.4 18.1138 -72.92 142.191
1094 21.4972 12.7029 1.4 18.7471 -67.4446 54.6166
1095 22.2472 12.7029 1.4 19.3886 -69.607 50.2864
1096 22.9972 12.7029 1.4 20.0377 -85.9154 -129.067
1097 23.7472 12.7029 1.4 20.6937 -82.7941 38.8018
1098 24.4972 12.7029 1.4 21.3558 -83.3303 167.754
1099 25.2472 12.7029 1.4 22.0235 -93.7726 -167.284
1100 25.9972 12.7029 1.4 22.6964 -89.8274 -87.8283
1101 26.7472 12.7029 1.4 23.374 -86.4856 56.6541
1102 27.4972 12.7029 1.4 24.0559 -83.7999 72.0644
1103 28.2472 12.7029 1.4 24.7417 -92.0357 -154.897
1104 28.9972 12.7029 1.4 25.4312 -89.4367 -14.0862
1105 29.7472 12.7029 1.4 26.124 -86.1635 -2.07331
1106 30.4972 12.7029 1.4 26.8198 -100.459 -98.4793
1107 -28.0028 13.4529 1.4 35.2051 -95.9296 94.2772
1108 -27.2528 13.4529 1.4 34.4908 -106.98 -31.139
1109 -26.5028 13.4529 1.4 33.778 -105.153 -14.4165
1110 -25.7528 13.4529 1.4 33.0669 -97.8245 -175.978
1111 -25.0028 13.4529 1.4 32.3576 -250 0
1112 -24.2528 13.4529 1.4 31.6501 -90.5256 143
1113 -23.5028 13.4529 1.4 30.9447 -84.1537 151.442
1114 -22.7528 13.4529 1.4 30.2413 -90.363 -126.069
1115 -22.0028 13.4529 1.4 29.5403 -71.3089 -170.944
1116 -21.2528 13.4529 1.4 28.8418 -82.2716 22.0076
1117 -20.5028 13.4529 1.4 28.1459 -83.6351 -108.188
1118 -19.7528 13.4529 1.4 27.4528 -74.3788 -60.0135
1119 -19.0028 13.4529 1.4 26.7628 -80.0831 -164.45
1120 -18.2528 13.4529 1.4 26.0761 -78.8819 27.47
1121 -17.5028 13.4529 1.4 25.393 -92.5676 44.4445
1122 -16.7528 13.4529 1.4 24.7138 -88.1166 47.7636
1123 -16.0028 13.4529 1.4 24.0388 -88.8997 -163.783
1124 -15.2528 13.4529 1.4 23.3684 -84.787 -106.029
1125 -14.5028 13.4529 1.4 22.7029 -72.3289 131.362
1126 -13.7528 13.4529 1.4 22.0429 -92.4892 -6.82139
1127 -13.0028 13.4529 1.4 21.3888 -98.0706 140.628
1128 -12.2528 13.4529 1.4 20.7412 -81.6266 17.4801
1129 -11.5028 13.4529 1.4 20.1007 -72.9989 98.4422
1130 -10.7528 13.4529 1.4 19.4681 -81.3446 -113.128
1131 -10.0028 13.4529 1.4 18.844 -76.3244 137.937
1132 -9.25282 13.4529 1.4 18.2295 -77.4829 -90.4533
1133 -8.50282 13.4529 1.4 17.6255 -64.2267 130.848
1134 -7.75282 13.4529 1.4 17.033 -81.2914 -86.2362
1135 -7.00282 13.4529 1.4 16.4534 -71.1479 -164.263
1136 -6.25282 13.4529 1.4 15.8881 -61.8142 20.9905
1137 -5.50282 13.4529 1.4 15.3386 -60.4328 -168.41
1138 -4.75282 13.4529 1.4 14.8068 -67.2961 22.9099
1139 -4.00282 13.4529 1.4 14.2945 -73.5694 74.4275
1140 -3.25282 13.4529 1.4 13.8039 -67.1245 133.126
1141 -2.50282 13.4529 1.4 13.3376 -65.919 49.1596
1142 -1.75282 13.4529 1.4 12.898 -66.9079 -106.584
1143 -1.00282 13.4529 1.4 12.4879 -65.4076 -76.2575
1144 -0.25282 13.4529 1.4 12.1106 -63.053 68.4781
1145 0.49718 13.4529 1.4 11.7689 -77.7989 -28.2356
1146 1.24718 13.4529 1.4 11.4662 -70.0792 100.75
1147 1.99718 13.4529 1.4 11.2056 -66.6533 -76.883
1148 2.74718 13.4529 1.4 10.9901 -63.7254 54.4069
1149 3.49718 13.4529 1.4 10.8224 -64.4108 103.052
1150 4.24718 13.4529 1.4 10.7047 -58.2967 14.3398
1151 4.99718 13.4529 1.4 10.6387 -64.7437 -107.834
1152 5.74718 13.4529 1.4 10.6254 -52.9158 -77.7979
1153 6.49718 13.4529 1.4 10.6649 -64.2734 17.229
1154 7.24718 13.4529 1.4 10.7568 -51.7088 69.2255
1155 7.99718 13.4529 1.4 10.8995 -55.3169 141.663
1156 8.74718 13.4529 1.4 11.0913 -50.3601 -91.2313
1157 9.49718 13.4529 1.4 11.3295 -55.9525 28.6698
1158 10.2472 13.4529 1.4 11.6114 -55.4093 153.999
1159 10.9972 13.4529 1.4 11.9338 -55.8781 -11.4179
1160 11.7472 13.4529 1.4 12.2936 -68.1285 117.724
1161 12.4972 13.4529 1.4 12.6876 -71.6674 -68.137
1162 13.2472 13.4529 1.4 13.1127 -69.4576 -99.9706
1163 13.9972 13.4529 1.4 13.5659 -68.3287 61.2723
1164 14.7472 13.4529 1.4 14.0446 -59.975 3.95699
1165 15.4972 13.4529 1.4 14.5462 -68.1666 -27.6986
1166 16.2472 13.4529 1.4 15.0685 -57.9894 -149.109
1167 16.9972 13.4529 1.4 15.6093 -62.2857 107.829
1168 17.7472 13.4529 1.4 16.1669 -69.5477 -51.3762
1169 18.4972 13.4529 1.4 16.7394 -59.5392 -0.996846
1170 19.2472 13.4529 1.4 17.3256 -62.6933 175.876
1171 19.9972 13.4529 1.4 17.9239 -85.3381 -126.207
1172 20.7472 13.4529 1.4 18.5333 -61.7609 128.725
1173 21.4972 13.4529 1.4 19.1527 -62.7933 -82.6783
1174 22.2472 13.4529 1.4 19.7811 -71.338 -5.74409
1175 22.9972 13.4529 1.4 20.4177 -80.9559 -29.0006
1176 23.7472 13.4529 1.4 21.0618 -74.8727 121.198
1177 24.4972 13.4529 1.4 21.7127 -71.187 45.4551
1178 25.2472 13.4529 1.4 22.3698 -95.1082 68.5859
1179 25.9972 13.4529 1.4 23.0326 -82.2507 -51.1349
1180 26.7472 13.4529 1.4 23.7006 -94.5898 160.3
1181 27.4972 13.4529 1.4 24.3733 -90.5856 96.9246
1182 28.2472 13.4529 1.4 25.0505 -91.3258 36.4899
1183 28.9972 13.4529 1.4 25.7317 -94.4585 -174.513
1184 29.7472 13.4529 1.4 26.4166 -91.7339 75.7178
1185 30.4972 13.4529 1.4 27.1049 -97.4337 155.942
1186 -28.0028 14.2029 1.4 35.4386 -98.846 -90.7162
1187 -27.2528 14.2029 1.4 34.7291 -100.007 149.746
1188 -26.5028 14.2029 1.4 34.0214 -99.0575 -47.8805
1189 -25.7528 14.2029 1.4 33.3155 -99.8983 -175.516
1190 -25.0028 14.2029 1.4 32.6115 -99.5462 -127.581
1191 -24.2528 14.2029 1.4 31.9097 -85.2491 2.60516
1192 -23.5028 14.2029 1.4 31.2101 -71.9545 -46.8243
1193 -22.7528 14.2029 1.4 30.5129 -79.482 122.017
1194 -22.0028 14.2029 1.4 29.8183 -92.3483 56.5975
1195 -21.2528 14.2029 1.4 29.1264 -92.7219 155.204
1196 -20.5028 14.2029 1.4 28.4374 -83.1364 49.9005
1197 -19.7528 14.2029 1.4 27.7516 -83.4931 152.352
1198 -19.0028 14.2029 1.4 27.0693 -85.3439 -73.7111
1199 -18.2528 14.2029 1.4 26.3906 -87.7998 -43.9406
1200 -17.5028 14.2029 1.4 25.7158 -84.0804 96.3433
1201 -16.7528 14.2029 1.4 25.0454 -86.8003 136.872
1202 -16.0028 14.2029 1.4 24.3796 -93.0378 12.4955
1203 -15.2528 14.2029 1.4 23.7188 -105.437 -95.5384
1204 -14.5028 14.2029 1.4 23.0634 -79.5134 4.70904
1205 -13.7528 14.2029 1.4 22.414 -73.829 117.252
1206 -13.0028 14.2029 1.4 21.7711 -82.7844 -71.4333
1207 -12.2528 14.2029 1.4 21.1352 -70.7244 -61.4762
1208 -11.5028 14.2029 1.4 20.507 -76.2455 -58.0028
1209 -10.7528 14.2029 1.4 19.8873 -90.4928 114.544
1210 -10.0028 14.2029 1.4 19.2768 -86.2252 -145.753
1211 -9.25282 14.2029 1.4 18.6765 -75.8145 -176.978
1212 -8.50282 14.2029 1.4 18.0874 -83.3301 -136.521
1213 -7.75282 14.2029 1.4 17.5106 -66.6387 24.9527
1214 -7.00282 14.2029 1.4 16.9474 -65.9528 116.571
1215 -6.25282 14.2029 1.4 16.3991 -62.6586 -39.5204
1216 -5.50282 14.2029 1.4 15.8673 -65.65 147.764
1217 -4.75282 14.2029 1.4 15.3538 -90.2315 -64.9732
1218 -4.00282 14.2029 1.4 14.8604 -67.3145 -140.703
1219 -3.25282 14.2029 1.4 14.3891 -74.671 -174.467
1220 -2.50282 14.2029 1.4 13.9423 -71.7536 -25.1712
1221 -1.75282 14.2029 1.4 13.5224 -62.2842 143.823
1222 -1.00282 14.2029 1.4 13.1319 -72.8687 -71.5848
1223 -0.25282 14.2029 1.4 12.7736 -75.2239 157.306
1224 0.49718 14.2029 1.4 12.4501 -75.7362 -96.4735
1225 1.24718 14.2029 1.4 12.1644 -75.6843 2.54584
1226 1.99718 14.2029 1.4 11.9191 -63.0899 90.9972
1227 2.74718 14.2029 1.4 11.7167 -58.8606 -125.827
1228 3.49718 14.2029 1.4 11.5595 -56.917 -48.3862
1229 4.24718 14.2029 1.4 11.4494 -61.0865 102.659
1230 4.99718 14.2029 1.4 11.3878 -56.8112 -171.151
1231 5.74718 14.2029 1.4 11.3753 -73.4851 -118.292
1232 6.49718 14.2029 1.4 11.4122 -59.9506 -46.8321
1233 7.24718 14.2029 1.4 11.4981 -56.9075 136.834
1234 7.99718 14.2029 1.4 11.6318 -61.1075 87.5123
1235 8.74718 14.2029 1.4 11.8116 -52.2588 -81.6051
1236 9.49718 14.2029 1.4 12.0356 -56.1988 44.9157
1237 10.2472 14.2029 1.4 12.3013 -61.3841 -14.9887
1238 10.9972 14.2029 1.4 12.6061 -55.9079 -133.063
1239 11.7472 14.2029 1.4 12.9473 -58.0599 -56.6879
1240 12.4972 14.2029 1.4 13.3219 -76.284 16.0661
1241 13.2472 14.2029 1.4 13.7273 -64.4163 -114.558
1242 13.9972 14.2029 1.4 14.1609 -66.8801 108.045
1243 14.7472 14.2029 1.4 14.6201 -67.6674 9.5782
1244 15.4972 14.2029 1.4 15.1027 -62.7835 170.212
1245 16.2472 14.2029 1.4 15.6063 -64.3811 54.8353
1246 16.9972 14.2029 1.4 16.1291 -65.1981 -61.8609
1247 17.7472 14.2029 1.4 16.6693 -60.8759 -126.299
1248 18.4972 14.2029 1.4 17.2252 -63.871 30.1347
1249 19.2472 14.2029 1.4 17.7953 -64.3331 139.007
1250 19.9972 14.2029 1.4 18.3784 -69.4398 -73.9188
1251 20.7472 14.2029 1.4 18.9732 -78.1089 -1.41301
1252 21.4972 14.2029 1.4 19.5787 -79.0073 -92.926
1253 22.2472 14.2029 1.4 20.1938 -69.3285 17.1883
1254 22.9972 14.2029 1.4 20.8178 -94.0688 -121.965
1255 23.7472 14.2029 1.4 21.4499 -70.2105 -93.1054
1256 24.4972 14.2029 1.4 22.0894 -66.5962 -30.1688
1257 25.2472 14.2029 1.4 22.7356 -92.8265 -150.873
1258 25.9972 14.2029 1.4 23.388 -81.4277 108.471
1259 26.7472 14.2029 1.4 24.0461 -88.8259 33.1554
1260 27.4972 14.2029 1.4 24.7095 -85.5504 -153.1
1261 28.2472 14.2029 1.4 25.3776 -95.5159 -145.949
1262 28.9972 14.2029 1.4 26.0503 -101.028 161.634
1263 29.7472 14.2029 1.4 26.727 -109.597 -31.4473
1264 30.4972 14.2029 1.4 27.4076 -104.844 -125.149
1265 -28.0028 14.9529 1.4 35.6864 -93.1464 84.876
1266 -27.2528 14.9529 1.4 34.9819 -101.147 4.32513
1267 -26.5028 14.9529 1.4 34.2794 -105.546 -15.0391
1268 -25.7528 14.9529 1.4 33.5789 -91.2516 -173.359
1269 -25.0028 14.9529 1.4 32.8806 -90.558 -37.2548
1270 -24.2528 14.9529 1.4 32.1846 -85.5716 -147.994
1271 -23.5028 14.9529 1.4 31.4912 -87.2111 86.4324
1272 -22.7528 14.9529 1.4 30.8003 -75.2516 135.364
1273 -22.0028 14.9529 1.4 30.1123 -86.9717 -29.5789
1274 -21.2528 14.9529 1.4 29.4273 -96.9729 132.259
1275 -20.5028 14.9529 1.4 28.7456 -111.563 1.96673
1276 -19.7528 14.9529 1.4 28.0674 -107.972 -144.885
1277 -19.0028 14.9529 1.4 27.3929 -106.716 173.909
1278 -18.2528 14.9529 1.4 26.7224 -125.296 43.6308
1279 -17.5028 14.9529 1.4 26.0562 -250 0
1280 -16.7528 14.9529 1.4 25.3948 -100.874 80.292
1281 -16.0028 14.9529 1.4 24.7383 -91.7894 130.208
1282 -15.2528 14.9529 1.4 24.0874 -96.9305 45.5944
1283 -14.5028 14.9529 1.4 23.4424 -112.326 -13.7612
1284 -13.7528 14.9529 1.4 22.8037 -92.0302 -112.04
1285 -13.0028 14.9529 1.4 22.1721 -105.915 -77.813
1286 -12.2528 14.9529 1.4 21.5481 -104.59 -51.9716
1287 -11.5028 14.9529 1.4 20.9323 -95 -61.9131
1288 -10.7528 14.9529 1.4 20.3255 -91.9818 177.826
1289 -10.0028 14.9529 1.4 19.7286 -88.6552 0.769872
1290 -9.25282 14.9529 1.4 19.1425 -87.584 11.3158
1291 -8.50282 14.9529 1.4 18.5682 -90.5065 141.274
1292 -7.75282 14.9529 1.4 18.0068 -84.6522 149.397
1293 -7.00282 14.9529 1.4 17.4596 -64.3578 38.1364
1294 -6.25282 14.9529 1.4 16.9279 -80.4033 -19.5755
1295 -5.50282 14.9529 1.4 16.4133 -80.8631 157.064
1296 -4.75282 14.9529 1.4 15.9173 -67.996 -21.8696
1297 -4.00282 14.9529 1.4 15.4419 -78.8599 5.68528
1298 -3.25282 14.9529 1.4 14.989 -70.4349 -125.971
1299 -2.50282 14.9529 1.4 14.5606 -67.7454 28.417
1300 -1.75282 14.9529 1.4 14.159 -74.611 41.4927
1301 -1.00282 14.9529 1.4 13.7866 -75.3706 130.969
1302 -0.25282 14.9529 1.4 13.4457 -101.621 38.3475
1303 0.49718 14.9529 1.4 13.1388 -68.3745 109.316
1304 1.24718 14.9529 1.4 12.8684 -90.6193 17.1083
1305 1.99718 14.9529 1.4 12.6367 -67.064 106.806
1306 2.74718 14.9529 1.4 12.446 -67.2163 66.5959
1307 3.49718 14.9529 1.4 12.2982 -57.2812 -84.2428
1308 4.24718 14.9529 1.4 12.1948 -69.0593 14.7162
1309 4.99718 14.9529 1.4 12.1369 -58.235 -25.6695
1310 5.74718 14.9529 1.4 12.1252 -55.582 21.1861
1311 6.49718 14.9529 1.4 12.1599 -60.3015 -124.999
1312 7.24718 14.9529 1.4 12.2405 -64.4721 133.79
1313 7.99718 14.9529 1.4 12.3661 -63.5721 135.216
1314 8.74718 14.9529 1.4 12.5355 -65.5454 119.073
1315 9.49718 14.9529 1.4 12.7467 -56.8931 54.1942
1316 10.2472 14.9529 1.4 12.9979 -57.023 141.742
1317 10.9972 14.9529 1.4 13.2868 -56.1007 -31.9045
1318 11.7472 14.9529 1.4 13.6108 -61.2781 126.071
1319 12.4972 14.9529 1.4 13.9677 -67.6365 65.3271
1320 13.2472 14.9529 1.4 14.3549 -68.0047 176.098
1321 13.9972 14.9529 1.4 14.7701 -65.5599 163.752
1322 14.7472 14.9529 1.4 15.2109 -73.8298 10.8215
1323 15.4972 14.9529 1.4 15.6752 -71.9928 153.988
1324 16.2472 14.9529 1.4 16.1611 -72.6475 -23.7568
1325 16.9972 14.9529 1.4 16.6665 -69.6975 -108.301
1326 17.7472 14.9529 1.4 17.1898 -83.4705 25.396
1327 18.4972 14.9529 1.4 17.7294 -62.9892 34.9623
1328 19.2472 14.9529 1.4 18.2838 -78.4981 163.308
1329 19.9972 14.9529 1.4 18.8518 -68.3499 -12.9699
1330 20.7472 14.9529 1.4 19.4321 -92.8853 -110.09
1331 21.4972 14.9529 1.4 20.0237 -100.358 112.352
1332 22.2472 14.9529 1.4 20.6256 -83.7388 -176.732
1333 22.9972 14.9529 1.4 21.2369 -84.126 121.373
1334 23.7472 14.9529 1.4 21.8569 -97.431 -126.496
1335 24.4972 14.9529 1.4 22.4847 -113.645 -132.237
1336 25.2472 14.9529 1.4 23.1199 -93.3617 124.427
1337 25.9972 14.9529 1.4 23.7618 -85.1106 44.6127
1338 26.7472 14.9529 1.4 24.4098 -90.5031 -109.141
1339 27.4972 14.9529 1.4 25.0635 -93.1314 -162.351
1340 28.2472 14.9529 1.4 25.7225 -95.0483 -74.2071
1341 28.9972 14.9529 1.4 26.3863 -107.416 -158.586
1342 29.7472 14.9529 1.4 27.0547 -109.349 -23.1553
1343 30.4972 14.9529 1.4 27.7272 -102.212 -165.012
1344 -28.0028 15.7029 1.4 35.9481 -119.52 174.245
1345 -27.2528 15.7029 1.4 35.2489 -100.974 -113.967
1346 -26.5028 15.7029 1.4 34.5518 -90.7191 143.727
1347 -25.7528 15.7029 1.4 33.8569 -87.2102 44.4068
1348 -25.0028 15.7029 1.4 33.1645 -95.09 -171.581
1349 -24.2528 15.7029 1.4 32.4746 -90.5673 -177.764
1350 -23.5028 15.7029 1.4 31.7874 -80.392 96.467
1351 -22.7528 15.7029 1.4 31.1032 -84.629 -146.693
1352 -22.0028 15.7029 1.4 30.422 -87.8497 -107.006
1353 -21.2528 15.7029 1.4 29.7442 -100.467 91.0343
1354 -20.5028 15.7029 1.4 29.0699 -106.262 -121.039
1355 -19.7528 15.7029 1.4 28.3994 -99.8409 5.06265
1356 -19.0028 15.7029 1.4 27.733 -110.16 37.3817
1357 -18.2528 15.7029 1.4 27.0709 -131.691 -64.208
1358 -17.5028 15.7029 1.4 26.4135 -101.465 -97.8862
1359 -16.7528 15.7029 1.4 25.7613 -109.559 93.7311
1360 -16.0028 15.7029 1.4 25.1144 -99.1545 -110.636
1361 -15.2528 15.7029 1.4 24.4735 -90.5924 50.8456
1362 -14.5028 15.7029 1.4 23.8389 -99.484 43.1357
1363 -13.7528 15.7029 1.4 23.2112 -91.3203 -119.286
1364 -13.0028 15.7029 1.4 22.5909 -98.0351 12.036
1365 -12.2528 15.7029 1.4 21.9788 -106.094 -123.554
1366 -11.5028 15.7029 1.4 21.3754 -100.614 20.3961
1367 -10.7528 15.7029 1.4 20.7816 -104.89 -107.791
1368 -10.0028 15.7029 1.4 20.1982 -87.8818 134.219
1369 -9.25282 15.7029 1.4 19.6261 -78.0218 -69.6062
1370 -8.50282 15.7029 1.4 19.0664 -63.8635 11.5251
1371 -7.75282 15.7029 1.4 18.5201 -64.6936 -164.268
1372 -7.00282 15.7029 1.4 17.9885 -62.3713 -64.2009
1373 -6.25282 15.7029 1.4 17.4729 -78.8427 55.8427
1374 -5.50282 15.7029 1.4 16.9748 -69.449 69.3405
1375 -4.75282 15.7029 1.4 16.4957 -79.1875 49.8334
1376 -4.00282 15.7029 1.4 16.0375 -87.8806 -73.372
1377 -3.25282 15.7029 1.4 15.6019 -74.7306 -24.655
1378 -2.50282 15.7029 1.4 15.1908 -80.6829 -23.8793
1379 -1.75282 15.7029 1.4 14.8063 -71.2397 30.5906
1380 -1.00282 15.7029 1.4 14.4505 -74.8035 -59.2869
1381 -0.25282 15.7029 1.4 14.1257 -85.0093 -47.6981
1382 0.49718 15.7029 1.4 13.8339 -74.7834 -14.5929
1383 1.24718 15.7029 1.4 13.5773 -66.1249 124.75
1384 1.99718 15.7029 1.4 13.358 -66.3232 96.8162
1385 2.74718 15.7029 1.4 13.1777 -67.4952 -81.424
1386 3.49718 15.7029 1.4 13.0382 -56.4028 -45.5768
1387 4.24718 15.7029 1.4 12.9407 -65.0841 -43.1968
1388 4.99718 15.7029 1.4 12.8861 -63.4763 -135.811
1389 5.74718 15.7029 1.4 12.8751 -61.7116 13.3795
1390 6.49718 15.7029 1.4 12.9078 -61.3203 -128.474
1391 7.24718 15.7029 1.4 12.9837 -56.7636 107.019
1392 7.99718 15.7029 1.4 13.1023 -74.0012 158.685
1393 8.74718 15.7029 1.4 13.2622 -56.5257 102.234
1394 9.49718 15.7029 1.4 13.4621 -72.1695 44.2848
1395 10.2472 15.7029 1.4 13.7002 -53.1384 152.348
1396 10.9972 15.7029 1.4 13.9745 -62.6231 28.1654
1397 11.7472 15.7029 1.4 14.283 -72.9003 -170.53
1398 12.4972 15.7029 1.4 14.6234 -59.0804 116.985
1399 13.2472 15.7029 1.4 14.9937 -61.9995 25.1842
1400 13.9972 15.7029 1.4 15.3917 -73.4551 69.9422
1401 14.7472 15.7029 1.4 15.8152 -68.3586 -145.87
1402 15.4972 15.7029 1.4 16.2623 -68.2345 22.0552
1403 16.2472 15.7029 1.4 16.7311 -73.4667 127.126
1404 16.9972 15.7029 1.4 17.2198 -69.0916 -167.504
1405 17.7472 15.7029 1.4 17.7267 -66.6216 32.3477
1406 18.4972 15.7029 1.4 18.2504 -80.9133 -66.9481
1407 19.2472 15.7029 1.4 18.7895 -63.1473 148.146
1408 19.9972 15.7029 1.4 19.3426 -82.0676 -92.3112
1409 20.7472 15.7029 1.4 19.9086 -68.3526 127.962
1410 21.4972 15.7029 1.4 20.4865 -79.4379 -23.4854
1411 22.2472 15.7029 1.4 21.0751 -89.2196 33.9605
1412 22.9972 15.7029 1.4 21.6738 -87.178 79.5911
1413 23.7472 15.7029 1.4 22.2816 -82.9277 -65.5515
1414 24.4972 15.7029 1.4 22.8979 -103.801 -178.505
1415 25.2472 15.7029 1.4 23.5219 -96.2648 -126.712
1416 25.9972 15.7029 1.4 24.1531 -102.083 146.654
1417 26.7472 15.7029 1.4 24.7909 -86.6267 161.055
1418 27.4972 15.7029 1.4 25.4348 -88.6236 -2.56484
1419 28.2472 15.7029 1.4 26.0844 -98.9037 -3.60314
1420 28.9972 15.7029 1.4 26.7393 -103.892 56.5547
1421 29.7472 15.7029 1.4 27.399 -106.961 -14.609
1422 30.4972 15.7029 1.4 28.0632 -99.8146 8.00382
1423 -28.0028 16.4529 1.4 36.2235 -85.9961 -153.602
1424 -27.2528 16.4529 1.4 35.5297 -89.3205 163.007
1425 -26.5028 16.4529 1.4 34.8382 -99.6161 -155.385
1426 -25.7528 16.4529 1.4 34.1492 -90.9847 -26.6321
1427 -25.0028 16.4529 1.4 33.4628 -123.505 -167.878
1428 -24.2528 16.4529 1.4 32.7792 -105.058 -121.323
1429 -23.5028 16.4529 1.4 32.0985 -87.048 -49.0588
1430 -22.7528 16.4529 1.4 31.421 -86.9713 7.98056
1431 -22.0028 16.4529 1.4 30.7469 -84.4004 52.983
1432 -21.2528 16.4529 1.4 30.0764 -92.9756 61.3539
1433 -20.5028 16.4529 1.4 29.4097 -94.8652 85.5705
1434 -19.7528 16.4529 1.4 28.7471 -116.624 -114.564
1435 -19.0028 16.4529 1.4 28.089 -98.3969 -30.5669
1436 -18.2528 16.4529 1.4 27.4355 -96.9844 129.18
1437 -17.5028 16.4529 1.4 26.7871 -112 26.4272
1438 -16.7528 16.4529 1.4 26.1441 -105.887 -103.597
1439 -16.0028 16.4529 1.4 25.507 -99.0138 148.198
1440 -15.2528 16.4529 1.4 24.8762 -92.5241 -148.759
1441 -14.5028 16.4529 1.4 24.2521 -96.398 -56.884
1442 -13.7528 16.4529 1.4 23.6354 -94.5533 83.3131
1443 -13.0028 16.4529 1.4 23.0266 -92.2819 107.372
1444 -12.2528 16.4529 1.4 22.4263 -94.9542 -90.9964
1445 -11.5028 16.4529 1.4 21.8353 -89.2362 177.556
1446 -10.7528 16.4529 1.4 21.2544 -86.688 48.6723
1447 -10.0028 16.4529 1.4 20.6843 -77.8123 46.9317
1448 -9.25282 16.4529 1.4 20.126 -61.3007 152.998
1449 -8.50282 16.4529 1.4 19.5806 -63.5537 -41.858
1450 -7.75282 16.4529 1.4 19.049 -66.8985 139.867
1451 -7.00282 16.4529 1.4 18.5326 -65.4168 -173.54
1452 -6.25282 16.4529 1.4 18.0326 -70.7073 116.91
1453 -5.50282 16.4529 1.4 17.5504 -64.7657 -162.139
1454 -4.75282 16.4529 1.4 17.0875 -69.2862 43.1573
1455 -4.00282 16.4529 1.4 16.6456 -87.2401 131.872
1456 -3.25282 16.4529 1.4 16.2263 -73.5821 129.329
1457 -2.50282 16.4529 1.4 15.8314 -70.3441 176.027
1458 -1.75282 16.4529 1.4 15.4629 -73.5355 145.919
1459 -1.00282 16.4529 1.4 15.1226 -79.2322 -155.194
1460 -0.25282 16.4529 1.4 14.8124 -78.5734 -46.7549
1461 0.49718 16.4529 1.4 14.5344 -75.0352 -128.854
1462 1.24718 16.4529 1.4 14.2904 -66.6673 -15.0697
1463 1.99718 16.4529 1.4 14.0822 -59.7029 102.864
1464 2.74718 16.4529 1.4 13.9113 -63.7404 -130.9
1465 3.49718 16.4529 1.4 13.7792 -68.5242 -165.897
1466 4.24718 16.4529 1.4 13.687 -58.7191 -53.737
1467 4.99718 16.4529 1.4 13.6354 -60.0364 -160.757
1468 5.74718 16.4529 1.4 13.6251 -66.4413 -56.1738
1469 6.49718 16.4529 1.4 13.6559 -69.6643 174.188
1470 7.24718 16.4529 1.4 13.7277 -67.6206 173.843
1471 7.99718 16.4529 1.4 13.8399 -58.3722 106.044
1472 8.74718 16.4529 1.4 13.9914 -59.4246 -161.581
1473 9.49718 16.4529 1.4 14.181 -59.0756 -49.4849
1474 10.2472 16.4529 1.4 14.4072 -57.4195 139.824
1475 10.9972 16.4529 1.4 14.6683 -69.4588 -22.108
1476 11.7472 16.4529 1.4 14.9625 -70.6368 -59.8772
1477 12.4972 16.4529 1.4 15.2878 -57.2981 -120.501
1478 13.2472 16.4529 1.4 15.6424 -60.9316 -63.7519
1479 13.9972 16.4529 1.4 16.0242 -81.066 -81.2193
1480 14.7472 16.4529 1.4 16.4315 -64.3142 -151.787
1481 15.4972 16.4529 1.4 16.8622 -64.9672 86.5545
1482 16.2472 16.4529 1.4 17.3148 -61.4225 -109.41
1483 16.9972 16.4529 1.4 17.7874 -71.2503 -19.6912
1484 17.7472 16.4529 1.4 18.2787 -76.7492 127.309
1485 18.4972 16.4529 1.4 18.787 -66.0504 137.637
1486 19.2472 16.4529 1.4 19.3111 -79.689 55.1568
1487 19.9972 16.4529 1.4 19.8497 -63.5262 -98.0969
1488 20.7472 16.4529 1.4 20.4016 -64.9436 73.5048
1489 21.4972 16.4529 1.4 20.9659 -80.5784 -153.512
1490 22.2472 16.4529 1.4 21.5415 -87.0428 169.727
1491 22.9972 16.4529 1.4 22.1275 -116.47 -47.9133
1492 23.7472 16.4529 1.4 22.7232 -105.032 -73.6231
1493 24.4972 16.4529 1.4 23.3278 -96.1741 -22.7468
1494 25.2472 16.4529 1.4 23.9406 -107.176 79.4679
1495 25.9972 16.4529 1.4 24.561 -91.1728 -124.719
1496 26.7472 16.4529 1.4 25.1885 -98.8289 146.863
1497 27.4972 16.4529 1.4 25.8225 -83.1707 -74.8351
1498 28.2472 16.4529 1.4 26.4626 -93.3142 50.8513
1499 28.9972 16.4529 1.4 27.1083 -109.073 -139.729
1500 29.7472 16.4529 1.4 27.7593 -100.798 112.002
1501 30.4972 16.4529 1.4 28.4151 -98.8515 -123.229
1502 -28.0028 17.2029 1.4 36.5122 -101.319 -149.174
1503 -27.2528 17.2029 1.4 35.8239 -95.1999 140.853
1504 -26.5028 17.2029 1.4 35.1382 -95.6636 100.781
1505 -25.7528 17.2029 1.4 34.4552 -102.796 74.8394
1506 -25.0028 17.2029 1.4 33.7751 -109.097 128.228
1507 -24.2528 17.2029 1.4 33.0979 -250 0
1508 -23.5028 17.2029 1.4 32.424 -250 0
1509 -22.7528 17.2029 1.4 31.7534 -124.581 47.8708
1510 -22.0028 17.2029 1.4 31.0865 -102.64 158.553
1511 -21.2528 17.2029 1.4 30.4235 -122.95 133.632
1512 -20.5028 17.2029 1.4 29.7646 -108.662 9.69029
1513 -19.7528 17.2029 1.4 29.1101 -97.6805 -110.763
1514 -19.0028 17.2029 1.4 28.4603 -112.809 -119.269
1515 -18.2528 17.2029 1.4 27.8156 -109.854 -86.8981
1516 -17.5028 17.2029 1.4 27.1762 -116.896 -172.577
1517 -16.7528 17.2029 1.4 26.5427 -97.1356 11.6188
1518 -16.0028 17.2029 1.4 25.9153 -105.436 178.033
1519 -15.2528 17.2029 1.4 25.2947 -112.402 -58.5078
1520 -14.5028 17.2029 1.4 24.6812 -90.7137 52.8482
1521 -13.7528 17.2029 1.4 24.0755 -92.7323 48.5855
1522 -13.0028 17.2029 1.4 23.4781 -86.6995 -118.963
1523 -12.2528 17.2029 1.4 22.8897 -82.7037 152.855
1524 -11.5028 17.2029 1.4 22.311 -85.1499 0.923109
1525 -10.7528 17.2029 1.4 21.7428 -88.9084 126.637
1526 -10.0028 17.2029 1.4 21.1858 -65.9298 -86.8097
1527 -9.25282 17.2029 1.4 20.6411 -63.829 85.316
1528 -8.50282 17.2029 1.4 20.1096 -68.4646 -106.761
1529 -7.75282 17.2029 1.4 19.5925 -73.0118 34.2965
1530 -7.00282 17.2029 1.4 19.0907 -66.2095 -56.0474
1531 -6.25282 17.2029 1.4 18.6057 -67.1417 -41.1118
1532 -5.50282 17.2029 1.4 18.1388 -69.78 158.013
1533 -4.75282 17.2029 1.4 17.6913 -74.0948 -24.0254
1534 -4.00282 17.2029 1.4 17.2648 -78.0899 69.585
1535 -3.25282 17.2029 1.4 16.8609 -71.6709 40.6503
1536 -2.50282 17.2029 1.4 16.4812 -75.6352 166.687
1537 -1.75282 17.2029 1.4 16.1276 -70.3283 2.52815
1538 -1.00282 17.2029 1.4 15.8016 -72.7787 -121.777
1539 -0.25282 17.2029 1.4 15.505 -68.9399 85.3802
1540 0.49718 17.2029 1.4 15.2397 -63.9078 144.783
1541 1.24718 17.2029 1.4 15.0072 -73.8144 -108.67
1542 1.99718 17.2029 1.4 14.809 -63.069 5.60453
1543 2.74718 17.2029 1.4 14.6466 -66.5021 8.23956
1544 3.49718 17.2029 1.4 14.5212 -74.6056 110.123
1545 4.24718 17.2029 1.4 14.4337 -57.9003 -81.0956
1546 4.99718 17.2029 1.4 14.3848 -58.5954 161.55
1547 5.74718 17.2029 1.4 14.375 -57.0291 -133.36
1548 6.49718 17.2029 1.4 14.4042 -61.0498 38.9795
1549 7.24718 17.2029 1.4 14.4723 -57.8353 6.1218
1550 7.99718 17.2029 1.4 14.5788 -56.9503 34.3445
1551 8.74718 17.2029 1.4 14.7227 -56.579 83.2256
1552 9.49718 17.2029 1.4 14.903 -65.2896 -54.2297
1553 10.2472 17.2029 1.4 15.1184 -65.2639 -154.703
1554 10.9972 17.2029 1.4 15.3674 -63.6977 21.4106
1555 11.7472 17.2029 1.4 15.6485 -57.5831 161.497
1556 12.4972 17.2029 1.4 15.9598 -56.4684 -92.066
1557 13.2472 17.2029 1.4 16.2998 -66.8879 13.428
1558 13.9972 17.2029 1.4 16.6666 -66.5717 170.893
1559 14.7472 17.2029 1.4 17.0585 -68.7509 32.6013
1560 15.4972 17.2029 1.4 17.4738 -62.3809 6.48297
1561 16.2472 17.2029 1.4 17.9109 -65.7668 -176.908
1562 16.9972 17.2029 1.4 18.3682 -71.5164 -94.129
1563 17.7472 17.2029 1.4 18.8443 -73.6095 -77.5564
1564 18.4972 17.2029 1.4 19.3378 -65.8696 -26.9774
1565 19.2472 17.2029 1.4 19.8473 -65.3838 -92.713
1566 19.9972 17.2029 1.4 20.3717 -79.3192 174.255
1567 20.7472 17.2029 1.4 20.9099 -63.8373 3.14244
1568 21.4972 17.2029 1.4 21.4608 -81.9837 -57.0999
1569 22.2472 17.2029 1.4 22.0235 -84.4222 3.67045
1570 22.9972 17.2029 1.4 22.597 -96.5219 -112.946
1571 23.7472 17.2029 1.4 23.1806 -104.56 -119.573
1572 24.4972 17.2029 1.4 23.7736 -107.898 110.953
1573 25.2472 17.2029 1.4 24.3752 -112.794 35.8332
1574 25.9972 17.2029 1.4 24.9848 -101.159 -167.614
1575 26.7472 17.2029 1.4 25.6019 -108.557 -95.6336
1576 27.4972 17.2029 1.4 26.2259 -84.9936 -51.5933
1577 28.2472 17.2029 1.4 26.8564 -94.0737 42.7286
1578 28.9972 17.2029 1.4 27.4929 -102.031 -140.043
1579 29.7472 17.2029 1.4 28.135 -100.1 7.00398
1580 30.4972 17.2029 1.4 28.7822 -112.698 -151.97
1581 -28.0028 17.9529 1.4 36.8139 -97.5316 -129.541
1582 -27.2528 17.9529 1.4 36.1314 -115.71 168.908
1583 -26.5028 17.9529 1.4 35.4516 -96.1317 -64.9247
1584 -25.7528 17.9529 1.4 34.7748 -112.657 -114.881
1585 -25.0028 17.9529 1.4 34.101 -111.477 57.9304
1586 -24.2528 17.9529 1.4 33.4304 -124.39 -49.2629
1587 -23.5028 17.9529 1.4 32.7633 -122.266 -48.4895
1588 -22.7528 17.9529 1.4 32.0999 -114.531 -8.26571
1589 -22.0028 17.9529 1.4 31.4403 -104.048 -24.2149
1590 -21.2528 17.9529 1.4 30.7849 -118.138 -22.7183
1591 -20.5028 17.9529 1.4 30.1339 -128.582 -64.5531
1592 -19.7528 17.9529 1.4 29.4876 -103.896 -161.287
1593 -19.0028 17.9529 1.4 28.8463 -97.5817 68.5016
1594 -18.2528 17.9529 1.4 28.2104 -98.6182 -6.08824
1595 -17.5028 17.9529 1.4 27.5802 -125.803 16.297
1596 -16.7528 17.9529 1.4 26.9562 -92.7152 -25.5623
1597 -16.0028 17.9529 1.4 26.3387 -96.9964 -73.6544
1598 -15.2528 17.9529 1.4 25.7283 -95.87 25.4706
1599 -14.5028 17.9529 1.4 25.1254 -92.5511 -71.4556
1600 -13.7528 17.9529 1.4 24.5307 -86.7318 -112.875
1601 -13.0028 17.9529 1.4 23.9446 -83.9168 45.1881
1602 -12.2528 17.9529 1.4 23.368 -85.7948 27.8407
1603 -11.5028 17.9529 1.4 22.8014 -90.2802 -166.982
1604 -10.7528 17.9529 1.4 22.2457 -87.972 171.651
1605 -10.0028 17.9529 1.4 21.7017 -69.7643 -171.949
1606 -9.25282 17.9529 1.4 21.1702 -71.7213 31.9723
1607 -8.50282 17.9529 1.4 20.6524 -70.9295 89.4999
1608 -7.75282 17.9529 1.4 20.1491 -71.4796 132.218
1609 -7.00282 17.9529 1.4 19.6616 -64.7257 98.7534
1610 -6.25282 17.9529 1.4 19.191 -84.9356 87.9097
1611 -5.50282 17.9529 1.4 18.7387 -75.1681 54.9511
1612 -4.75282 17.9529 1.4 18.3059 -69.3005 -115.269
1613 -4.00282 17.9529 1.4 17.894 -75.7037 83.663
1614 -3.25282 17.9529 1.4 17.5046 -75.9222 -51.3407
1615 -2.50282 17.9529 1.4 17.1393 -78.3376 -28.7826
1616 -1.75282 17.9529 1.4 16.7994 -68.1853 36.409
1617 -1.00282 17.9529 1.4 16.4867 -66.813 150.029
1618 -0.25282 17.9529 1.4 16.2028 -68.9801 -42.1789
1619 0.49718 17.9529 1.4 15.949 -67.2068 0.0532861
1620 1.24718 17.9529 1.4 15.727 -69.4651 0.667475
1621 1.99718 17.9529 1.4 15.538 -62.0997 72.5776
1622 2.74718 17.9529 1.4 15.3833 -64.0128 -2.06545
1623 3.49718 17.9529 1.4 15.264 -59.0305 166.255
1624 4.24718 17.9529 1.4 15.1807 -69.5798 -120.167
1625 4.99718 17.9529 1.4 15.1343 -63.9891 139.879
1626 5.74718 17.9529 1.4 15.1249 -62.9658 -121.866
1627 6.49718 17.9529 1.4 15.1527 -64.3408 85.7652
1628 7.24718 17.9529 1.4 15.2175 -62.2489 -58.8863
1629 7.99718 17.9529 1.4 15.3187 -59.3162 -97.0435
1630 8.74718 17.9529 1.4 15.4558 -64.1092 86.0594
1631 9.49718 17.9529 1.4 15.6276 -55.3626 -41.4133
1632 10.2472 17.9529 1.4 15.8332 -57.9326 25.9427
1633 10.9972 17.9529 1.4 16.0711 -67.6267 8.44285
1634 11.7472 17.9529 1.4 16.3401 -61.9752 -78.112
1635 12.4972 17.9529 1.4 16.6385 -63.2764 47.3475
1636 13.2472 17.9529 1.4 16.9648 -54.7993 56.6393
1637 13.9972 17.9529 1.4 17.3175 -63.3567 -169.116
1638 14.7472 17.9529 1.4 17.695 -67.7127 -176.149
1639 15.4972 17.9529 1.4 18.0957 -68.9754 -86.7571
1640 16.2472 17.9529 1.4 18.5182 -65.0964 80.9448
1641 16.9972 17.9529 1.4 18.9609 -60.6538 -19.1291
1642 17.7472 17.9529 1.4 19.4224 -71.6723 -179.342
1643 18.4972 17.9529 1.4 19.9016 -77.9297 -16.9182
1644 19.2472 17.9529 1.4 20.397 -64.9879 98.0588
1645 19.9972 17.9529 1.4 20.9077 -70.5911 48.4029
1646 20.7472 17.9529 1.4 21.4324 -77.2406 -55.0438
1647 21.4972 17.9529 1.4 21.9702 -92.4897 160.649
1648 22.2472 17.9529 1.4 22.5201 -94.4126 114.497
1649 22.9972 17.9529 1.4 23.0813 -88.2247 110.405
1650 23.7472 17.9529 1.4 23.653 -90.6872 70.368
1651 24.4972 17.9529 1.4 24.2344 -122.699 172.865
1652 25.2472 17.9529 1.4 24.8249 -102.542 -103.617
1653 25.9972 17.9529 1.4 25.4237 -110.131 -109.957
1654 26.7472 17.9529 1.4 26.0304 -84.3864 -153.349
1655 27.4972 17.9529 1.4 26.6444 -97.1182 -81.1793
1656 28.2472 17.9529 1.4 27.2652 -91.2316 108.845
1657 28.9972 17.9529 1.4 27.8923 -118.22 131.945
1658 29.7472 17.9529 1.4 28.5254 -139.198 12.6344
1659 30.4972 17.9529 1.4 29.164 -250 0
1660 -28.0028 18.7029 1.4 37.1283 -250 0
1661 -27.2528 18.7029 1.4 36.4517 -250 0
1662 -26.5028 18.7029 1.4 35.778 -250 0
1663 -25.7528 18.7029 1.4 35.1075 -250 0
1664 -25.0028 18.7029 1.4 34.4402 -250 0
1665 -24.2528 18.7029 1.4 33.7764 -250 0
1666 -23.5028 18.7029 1.4 33.1162 -111.938 168.687
1667 -22.7528 18.7029 1.4 32.46 -111.881 29.434
1668 -22.0028 18.7029 1.4 31.8079 -121.521 105.966
1669 -21.2528 18.7029 1.4 31.1602 -106.523 160.156
1670 -20.5028 18.7029 1.4 30.5172 -107.533 -33.4755
1671 -19.7528 18.7029 1.4 29.8792 -122.382 177.792
1672 -19.0028 18.7029 1.4 29.2465 -124.148 20.4187
1673 -18.2528 18.7029 1.4 28.6195 -94.3994 -105.016
1674 -17.5028 18.7029 1.4 27.9985 -97.7235 -171.814
1675 -16.7528 18.7029 1.4 27.384 -93.1 124.962
1676 -16.0028 18.7029 1.4 26.7764 -94.106 -0.840606
1677 -15.2528 18.7029 1.4 26.1762 -92.6356 43.2934
1678 -14.5028 18.7029 1.4 25.5839 -100.277 161.123
1679 -13.7528 18.7029 1.4 25 -87.7578 1.26016
1680 -13.0028 18.7029 1.4 24.4253 -82.9595 146.821
1681 -12.2528 18.7029 1.4 23.8602 -86.7506 -56.5967
1682 -11.5028 18.7029 1.4 23.3056 -85.6044 116.978
1683 -10.7528 18.7029 1.4 22.7622 -93.9565 72.8926
1684 -10.0028 18.7029 1.4 22.2308 -75.1199 161.995
1685 -9.25282 18.7029 1.4 21.7124 -73.5665 -107.026
1686 -8.50282 18.7029 1.4 21.2078 -68.8973 -108.681
1687 -7.75282 18.7029 1.4 20.718 -69.6996 -86.3083
1688 -7.00282 18.7029 1.4 20.2442 -75.1443 -149.164
1689 -6.25282 18.7029 1.4 19.7875 -67.2385 -87.2779
1690 -5.50282 18.7029 1.4 19.349 -77.556 -34.1857
1691 -4.75282 18.7029 1.4 18.9302 -69.139 -172.839
1692 -4.00282 18.7029 1.4 18.5322 -75.4314 -9.74072
1693 -3.25282 18.7029 1.4 18.1566 -67.8577 156.747
1694 -2.50282 18.7029 1.4 17.8046 -69.6881 66.8457
1695 -1.75282 18.7029 1.4 17.4777 -69.7404 -28.7901
1696 -1.00282 18.7029 1.4 17.1773 -70.9273 132.83
1697 -0.25282 18.7029 1.4 16.905 -88.226 18.8918
1698 0.49718 18.7029 1.4 16.6619 -65.2055 70.1095
1699 1.24718 18.7029 1.4 16.4495 -59.5376 -101.571
1700 1.99718 18.7029 1.4 16.2689 -68.5876 96.1241
1701 2.74718 18.7029 1.4 16.1213 -64.956 4.55678
1702 3.49718 18.7029 1.4 16.0074 -60.1857 135.687
1703 4.24718 18.7029 1.4 15.9281 -58.6871 -21.4641
1704 4.99718 18.7029 1.4 15.8838 -62.1218 19.3968
1705 5.74718 18.7029 1.4 15.8749 -57.193 153.631
1706 6.49718 18.7029 1.4 15.9014 -57.8818 69.4596
1707 7.24718 18.7029 1.4 15.9631 -56.5845 24.9237
1708 7.99718 18.7029 1.4 16.0596 -66.1484 -3.18213
1709 8.74718 18.7029 1.4 16.1904 -60.0404 44.3305
1710 9.49718 18.7029 1.4 16.3545 -72.8398 31.3071
1711 10.2472 18.7029 1.4 16.551 -64.411 135.55
1712 10.9972 18.7029 1.4 16.7788 -61.6791 130.285
1713 11.7472 18.7029 1.4 17.0366 -60.7007 -151.179
1714 12.4972 18.7029 1.4 17.323 -59.2693 -95.3662
1715 13.2472 18.7029 1.4 17.6367 -61.3091 152.93
1716 13.9972 18.7029 1.4 17.9763 -65.8977 -98.1477
1717 14.7472 18.7029 1.4 18.3402 -63.65 -7.79141
1718 15.4972 18.7029 1.4 18.7271 -70.2334 38.1189
1719 16.2472 18.7029 1.4 19.1356 -67.2688 120.586
1720 16.9972 18.7029 1.4 19.5643 -68.7429 -96.3369
1721 17.7472 18.7029 1.4 20.012 -70.5371 168.406
1722 18.4972 18.7029 1.4 20.4773 -67.082 -17.4287
1723 19.2472 18.7029 1.4 20.9592 -78.8852 116.588
1724 19.9972 18.7029 1.4 21.4565 -78.9061 -66.285
1725 20.7472 18.7029 1.4 21.9681 -67.6515 136.677
1726 21.4972 18.7029 1.4 22.4931 -91.979 8.78761
1727 22.2472 18.7029 1.4 23.0305 -90.2841 -130.463
1728 22.9972 18.7029 1.4 23.5796 -94.0167 -66.7204
1729 23.7472 18.7029 1.4 24.1395 -84.7262 -141.262
1730 24.4972 18.7029 1.4 24.7094 -102.88 26.7814
1731 25.2472 18.7029 1.4 25.2888 -99.1917 130.771
1732 25.9972 18.7029 1.4 25.8769 -86.2455 68.0461
1733 26.7472 18.7029 1.4 26.4732 -98.6369 121.573
1734 27.4972 18.7029 1.4 27.0771 -93.1664 -134.121
1735 28.2472 18.7029 1.4 27.6882 -94.5545 4.68591
1736 28.9972 18.7029 1.4 28.306 -146.214 127.121
1737 29.7472 18.7029 1.4 28.93 -114.103 -139.059
1738 30.4972 18.7029 1.4 29.5599 -127.733 148.479
1739 -28.0028 19.4529 1.4 37.4551 -250 0
1740 -27.2528 19.4529 1.4 36.7845 -250 0
1741 -26.5028 19.4529 1.4 36.117 -250 0
1742 -25.7528 19.4529 1.4 35.4529 -250 0
1743 -25.0028 19.4529 1.4 34.7922 -250 0
1744 -24.2528 19.4529 1.4 34.1353 -250 0
1745 -23.5028 19.4529 1.4 33.4822 -144.391 -1.04142
1746 -22.7528 19.4529 1.4 32.8333 -250 0
1747 -22.0028 19.4529 1.4 32.1888 -129.495 -100.977
1748 -21.2528 19.4529 1.4 31.5489 -125.324 -121.807
1749 -20.5028 19.4529 1.4 30.914 -124.135 -150.501
1750 -19.7528 19.4529 1.4 30.2843 -129.772 -110.611
1751 -19.0028 19.4529 1.4 29.6603 -108.559 66.1114
1752 -18.2528 19.4529 1.4 29.0422 -106.927 -135.484
1753 -17.5028 19.4529 1.4 28.4305 -134.063 -30.3725
1754 -16.7528 19.4529 1.4 27.8255 -104.732 94.1082
1755 -16.0028 19.4529 1.4 27.2277 -98.5026 -96.7818
1756 -15.2528 19.4529 1.4 26.6377 -94.2273 147.944
1757 -14.5028 19.4529 1.4 26.0559 -97.2712 42.559
1758 -13.7528 19.4529 1.4 25.4828 -87.03 88.0088
1759 -13.0028 19.4529 1.4 24.9192 -99.2174 -41.6424
1760 -12.2528 19.4529 1.4 24.3656 -85.989 -16.633
1761 -11.5028 19.4529 1.4 23.8228 -97.6266 -56.3384
1762 -10.7528 19.4529 1.4 23.2915 -91.7896 72.5561
1763 -10.0028 19.4529 1.4 22.7724 -77.3656 -45.2086
1764 -9.25282 19.4529 1.4 22.2666 -70.8237 79.0487
1765 -8.50282 19.4529 1.4 21.7748 -75.0307 92.1242
1766 -7.75282 19.4529 1.4 21.2981 -76.4865 20.7194
1767 -7.00282 19.4529 1.4 20.8375 -76.4422 24.7254
1768 -6.25282 19.4529 1.4 20.394 -75.5452 17.6078
1769 -5.50282 19.4529 1.4 19.9689 -68.3488 26.7962
1770 -4.75282 19.4529 1.4 19.5634 -77.9576 -78.4796
1771 -4.00282 19.4529 1.4 19.1786 -78.0187 56.4552
1772 -3.25282 19.4529 1.4 18.8158 -74.8892 -7.99019
1773 -2.50282 19.4529 1.4 18.4764 -65.1881 56.7138
1774 -1.75282 19.4529 1.4 18.1616 -76.2583 -129.975
1775 -1.00282 19.4529 1.4 17.8727 -79.1916 -178.389
1776 -0.25282 19.4529 1.4 17.6111 -73.0384 16.3166
1777 0.49718 19.4529 1.4 17.3779 -62.4635 28.4155
1778 1.24718 19.4529 1.4 17.1744 -71.3588 -89.4763
1779 1.99718 19.4529 1.4 17.0015 -66.6544 93.8132
1780 2.74718 19.4529 1.4 16.8602 -67.771 6.84963
1781 3.49718 19.4529 1.4 16.7514 -68.5469 98.8658
1782 4.24718 19.4529 1.4 16.6756 -64.271 -26.4102
1783 4.99718 19.4529 1.4 16.6333 -62.3665 105.475
1784 5.74718 19.4529 1.4 16.6248 -63.0514 158.315
1785 6.49718 19.4529 1.4 16.6501 -54.1275 50.7482
1786 7.24718 19.4529 1.4 16.7091 -62.8113 17.1133
1787 7.99718 19.4529 1.4 16.8013 -64.7602 -114.051
1788 8.74718 19.4529 1.4 16.9264 -59.7322 23.521
1789 9.49718 19.4529 1.4 17.0834 -60.8332 34.7474
1790 10.2472 19.4529 1.4 17.2717 -55.1527 60.1337
1791 10.9972 19.4529 1.4 17.4901 -71.3039 111.808
1792 11.7472 19.4529 1.4 17.7375 -65.0638 -179.808
1793 12.4972 19.4529 1.4 18.0128 -55.6665 -29.0977
1794 13.2472 19.4529 1.4 18.3147 -54.3544 -158.831
1795 13.9972 19.4529 1.4 18.6419 -71.5942 102.364
1796 14.7472 19.4529 1.4 18.993 -66.5784 17.3694
1797 15.4972 19.4529 1.4 19.3669 -76.6637 102.921
1798 16.2472 19.4529 1.4 19.7622 -60.5562 124.825
1799 16.9972 19.4529 1.4 20.1776 -75.5173 35.8184
1800 17.7472 19.4529 1.4 20.6119 -73.2444 -145.55
1801 18.4972 19.4529 1.4 21.064 -67.6673 -32.1515
1802 19.2472 19.4529 1.4 21.5328 -74.6424 77.995
1803 19.9972 19.4529 1.4 22.0171 -75.8747 138.5
1804 20.7472 19.4529 1.4 22.516 -74.5175 47.7701
1805 21.4972 19.4529 1.4 23.0285 -99.8641 174.485
1806 22.2472 19.4529 1.4 23.5537 -87.0816 164.621
1807 22.9972 19.4529 1.4 24.0909 -77.1486 144.641
1808 23.7472 19.4529 1.4 24.6391 -90.2114 -105.378
1809 24.4972 19.4529 1.4 25.1978 -105.449 -94.7466
1810 25.2472 19.4529 1.4 25.7662 -92.6424 98.6551
1811 25.9972 19.4529 1.4 26.3436 -103.719 -146.544
1812 26.7472 19.4529 1.4 26.9296 -99.853 -72.1387
1813 27.4972 19.4529 1.4 27.5235 -95.0475 87.7677
1814 28.2472 19.4529 1.4 28.1249 -100.384 -26.6262
1815 28.9972 19.4529 1.4 28.7333 -127.635 24.8037
1816 29.7472 19.4529 1.4 29.3483 -122.354 -41.9717
1817 30.4972 19.4529 1.4 29.9693 -130.892 -50.6775
1818 -28.0028 20.2029 1.4 37.7939 -250 0
1819 -27.2528 20.2029 1.4 37.1295 -250 0
1820 -26.5028 20.2029 1.4 36.4683 -250 0
1821 -25.7528 20.2029 1.4 35.8107 -250 0
1822 -25.0028 20.2029 1.4 35.1568 -250 0
1823 -24.2528 20.2029 1.4 34.5067 -250 0
1824 -23.5028 20.2029 1.4 33.8608 -250 0
1825 -22.7528 20.2029 1.4 33.2193 -250 0
1826 -22.0028 20.2029 1.4 32.5824 -250 0
1827 -21.2528 20.2029 1.4 31.9504 -250 0
1828 -20.5028 20.2029 1.4 31.3237 -151.459 33.4231
1829 -19.7528 20.2029 1.4 30.7024 -105.978 -39.4187
1830 -19.0028 20.2029 1.4 30.0871 -125.91 75.541
1831 -18.2528 20.2029 1.4 29.4779 -113.049 -109.563
1832 -17.5028 20.2029 1.4 28.8754 -109.206 165.4
1833 -16.7528 20.2029 1.4 28.28 -99.2056 -45.0032
1834 -16.0028 20.2029 1.4 27.692 -96.9247 165.146
1835 -15.2528 20.2029 1.4 27.1121 -94.1529 -77.0168
1836 -14.5028 20.2029 1.4 26.5407 -92.0141 67.9058
1837 -13.7528 20.2029 1.4 25.9783 -86.7172 73.8278
1838 -13.0028 20.2029 1.4 25.4257 -80.828 8.88097
1839 -12.2528 20.2029 1.4 24.8834 -88.0565 -81.4255
1840 -11.5028 20.2029 1.4 24.3521 -89.2149 2.67653
1841 -10.7528 20.2029 1.4 23.8325 -92.8579 -57.5163
1842 -10.0028 20.2029 1.4 23.3256 -77.1891 127.555
1843 -9.25282 20.2029 1.4 22.832 -75.8893 153.369
1844 -8.50282 20.2029 1.4 22.3526 -70.2007 139.09
1845 -7.75282 20.2029 1.4 21.8885 -79.3242 -61.7424
1846 -7.00282 20.2029 1.4 21.4406 -86.2846 96.2384
1847 -6.25282 20.2029 1.4 21.0099 -69.8767 138.914
1848 -5.50282 20.2029 1.4 20.5975 -78.4678 155.586
1849 -4.75282 20.2029 1.4 20.2045 -71.8614 133.212
1850 -4.00282 20.2029 1.4 19.8322 -77.6679 -23.4967
1851 -3.25282 20.2029 1.4 19.4816 -67.1914 127.502
1852 -2.50282 20.2029 1.4 19.154 -73.6453 -97.0795
1853 -1.75282 20.2029 1.4 18.8505 -71.7853 -89.2242
1854 -1.00282 20.2029 1.4 18.5724 -76.737 134.328
1855 -0.25282 20.2029 1.4 18.3207 -78.279 -6.5615
1856 0.49718 20.2029 1.4 18.0967 -62.6717 60.0293
1857 1.24718 20.2029 1.4 17.9013 -70.4397 -94.5994
1858 1.99718 20.2029 1.4 17.7355 -70.0957 130.155
1859 2.74718 20.2029 1.4 17.6002 -70.2214 -42.8384
1860 3.49718 20.2029 1.4 17.4959 -62.0925 170.719
1861 4.24718 20.2029 1.4 17.4234 -63.6661 49.241
1862 4.99718 20.2029 1.4 17.3829 -62.211 -132.293
1863 5.74718 20.2029 1.4 17.3748 -63.4752 -151.904
1864 6.49718 20.2029 1.4 17.399 -66.5092 -104.171
1865 7.24718 20.2029 1.4 17.4554 -61.1952 38.2362
1866 7.99718 20.2029 1.4 17.5438 -67.1947 177.462
1867 8.74718 20.2029 1.4 17.6635 -57.9582 -89.4046
1868 9.49718 20.2029 1.4 17.8141 -56.5312 -122.169
1869 10.2472 20.2029 1.4 17.9947 -53.1184 -179.93
1870 10.9972 20.2029 1.4 18.2044 -65.4617 39.5793
1871 11.7472 20.2029 1.4 18.4423 -64.2391 99.3665
1872 12.4972 20.2029 1.4 18.7072 -68.6383 0.120274
1873 13.2472 20.2029 1.4 18.998 -62.7105 -39.7384
1874 13.9972 20.2029 1.4 19.3136 -64.7957 -108.152
1875 14.7472 20.2029 1.4 19.6528 -79.9481 -18.4464
1876 15.4972 20.2029 1.4 20.0144 -73.2491 -119.063
1877 16.2472 20.2029 1.4 20.3971 -68.0906 -117.615
1878 16.9972 20.2029 1.4 20.7999 -62.4437 -38.9446
1879 17.7472 20.2029 1.4 21.2215 -77.7022 169.279
1880 18.4972 20.2029 1.4 21.6608 -70.6212 61.7396
1881 19.2472 20.2029 1.4 22.1169 -79.3081 79.7281
1882 19.9972 20.2029 1.4 22.5887 -73.7378 138.519
1883 20.7472 20.2029 1.4 23.0753 -76.8311 -69.1841
1884 21.4972 20.2029 1.4 23.5756 -105.463 -22.0824
1885 22.2472 20.2029 1.4 24.0889 -97.2539 -5.74542
1886 22.9972 20.2029 1.4 24.6144 -91.5649 -135.023
1887 23.7472 20.2029 1.4 25.1512 -97.187 112.416
1888 24.4972 20.2029 1.4 25.6988 -99.712 178.689
1889 25.2472 20.2029 1.4 26.2563 -106.877 -41.1457
1890 25.9972 20.2029 1.4 26.8232 -102.44 106.432
1891 26.7472 20.2029 1.4 27.3989 -106.79 107.05
1892 27.4972 20.2029 1.4 27.9829 -107.364 142.321
1893 28.2472 20.2029 1.4 28.5746 -100.367 -103.009
1894 28.9972 20.2029 1.4 29.1736 -131.066 5.94886
1895 29.7472 20.2029 1.4 29.7795 -122.16 116.819
1896 30.4972 20.2029 1.4 30.3918 -133.089 -10.7096
