#Rx
# X(m), Y(m), Z(m), Distance(m), Power (dBm) Phase (deg)
1 -28.0028 2.95289 1.4 35.4418 -137.732 123.194
2 -26.0028 2.95289 1.4 33.5659 -139.309 152.853
3 -24.0028 2.95289 1.4 31.7052 -134.492 -63.2292
4 -22.0028 2.95289 1.4 29.8625 -137.088 144.402
5 -20.0028 2.95289 1.4 28.0414 -114.642 43.4182
6 -18.0028 2.95289 1.4 26.2464 -99.6634 -96.0749
7 -16.0028 2.95289 1.4 24.4831 -76.4964 -121.6
8 -14.0028 2.95289 1.4 22.7591 -87.5276 41.3093
9 -12.0028 2.95289 1.4 21.0838 -69.9512 -133.876
10 -10.0028 2.95289 1.4 19.4699 -65.5664 -64.8616
11 -8.00282 2.95289 1.4 17.934 -79.081 133.691
12 -6.00282 2.95289 1.4 16.4979 -70.8117 149.989
13 -4.00282 2.95289 1.4 15.1898 -76.6262 44.3151
14 -2.00282 2.95289 1.4 14.0457 -72.8289 -122.948
15 -0.00282 2.95289 1.4 13.1085 -81.2323 111.628
16 1.99718 2.95289 1.4 12.4251 -59.8634 115.429
17 3.99718 2.95289 1.4 12.0389 -62.2766 20.9364
18 5.99718 2.95289 1.4 11.9785 -60.2329 -139.664
19 7.99718 2.95289 1.4 12.2489 -57.2027 89.7344
20 9.99718 2.95289 1.4 12.8291 -70.4558 173.105
21 11.9972 2.95289 1.4 13.6798 -67.5679 -135.811
22 13.9972 2.95289 1.4 14.7543 -71.6055 -178.032
23 15.9972 2.95289 1.4 16.0075 -79.6533 -38.306
24 17.9972 2.95289 1.4 17.4009 -81.478 84.456
25 19.9972 2.95289 1.4 18.9035 -78.4278 30.5956
26 21.9972 2.95289 1.4 20.4913 -77.6514 -68.9891
27 23.9972 2.95289 1.4 22.146 -79.9347 83.5993
28 25.9972 2.95289 1.4 23.8536 -77.8226 -87.9548
29 27.9972 2.95289 1.4 25.6036 -80.4661 -91.0895
30 29.9972 2.95289 1.4 27.3879 -80.5133 -131.027
31 -28.0028 4.95289 1.4 34.8177 -95.5452 -41.3213
32 -26.0028 4.95289 1.4 32.9063 -125.442 -68.7276
33 -24.0028 4.95289 1.4 31.006 -128.155 171.02
34 -22.0028 4.95289 1.4 29.1192 -136.11 -89.9296
35 -20.0028 4.95289 1.4 27.2484 -88.9826 -54.9972
36 -18.0028 4.95289 1.4 25.3974 -94.0982 99.5949
37 -16.0028 4.95289 1.4 23.5707 -82.2955 43.7046
38 -14.0028 4.95289 1.4 21.7745 -75.9699 -36.4087
39 -12.0028 4.95289 1.4 20.017 -72.4062 56.5411
40 -10.0028 4.95289 1.4 18.3093 -74.2465 11.3659
41 -8.00282 4.95289 1.4 16.6668 -75.6324 -64.6723
42 -6.00282 4.95289 1.4 15.1107 -66.3672 -118.232
43 -4.00282 4.95289 1.4 13.6706 -71.3143 -104.258
44 -2.00282 4.95289 1.4 12.3869 -62.4749 -49.4821
45 -0.00282 4.95289 1.4 11.3131 -66.5892 -167.548
46 1.99718 4.95289 1.4 10.5137 -56.2997 47.6053
47 3.99718 4.95289 1.4 10.0542 -53.2494 12.3556
48 5.99718 4.95289 1.4 9.98193 -61.3661 148.389
49 7.99718 4.95289 1.4 10.3048 -54.6504 93.3435
50 9.99718 4.95289 1.4 10.9882 -73.8296 96.2879
51 11.9972 4.95289 1.4 11.9705 -69.5597 -11.7161
52 13.9972 4.95289 1.4 13.1849 -64.5168 172.711
53 15.9972 4.95289 1.4 14.5737 -71.8821 -77.6581
54 17.9972 4.95289 1.4 16.0918 -80.769 -172.855
55 19.9972 4.95289 1.4 17.7058 -79.335 43.8325
56 21.9972 4.95289 1.4 19.3919 -72.5117 101.569
57 23.9972 4.95289 1.4 21.1329 -67.795 -98.348
58 25.9972 4.95289 1.4 22.9161 -75.2472 -14.0999
59 27.9972 4.95289 1.4 24.7326 -89.4846 -101.678
60 29.9972 4.95289 1.4 26.5754 -87.7652 -168.08
61 -28.0028 6.95289 1.4 34.2991 -104.064 -76.8972
62 -26.0028 6.95289 1.4 32.357 -110.48 -84.1434
63 -24.0028 6.95289 1.4 30.4225 -127.354 -84.1079
64 -22.0028 6.95289 1.4 28.497 -134.636 -62.565
65 -20.0028 6.95289 1.4 26.5825 -90.6129 174.825
66 -18.0028 6.95289 1.4 24.6816 -84.8507 16.3047
67 -16.0028 6.95289 1.4 22.7976 -98.2692 84.3009
68 -14.0028 6.95289 1.4 20.9352 -82.6993 -95.5845
69 -12.0028 6.95289 1.4 19.1006 -81.9424 4.48076
70 -10.0028 6.95289 1.4 17.3027 -68.3548 146.743
71 -8.00282 6.95289 1.4 15.5543 -71.3794 -75.255
72 -6.00282 6.95289 1.4 13.874 -75.1781 -126.246
73 -4.00282 6.95289 1.4 12.2898 -64.0171 -59.5657
74 -2.00282 6.95289 1.4 10.8438 -71.786 -95.2798
75 -0.00282 6.95289 1.4 9.59895 -70.6231 -127.934
76 1.99718 6.95289 1.4 8.64239 -72.3882 -137.134
77 3.99718 6.95289 1.4 8.07724 -58.8868 113.063
78 5.99718 6.95289 1.4 7.98704 -55.6867 -169.847
79 7.99718 6.95289 1.4 8.38712 -64.7695 38.6472
80 9.99718 6.95289 1.4 9.21383 -67.8172 100.385
81 11.9972 6.95289 1.4 10.3656 -64.0875 99.1345
82 13.9972 6.95289 1.4 11.7472 -62.5211 76.1204
83 15.9972 6.95289 1.4 13.2871 -73.4191 51.2631
84 17.9972 6.95289 1.4 14.9365 -83.4131 139.354
85 19.9972 6.95289 1.4 16.6628 -77.572 49.9888
86 21.9972 6.95289 1.4 18.4445 -80.4199 -101.737
87 23.9972 6.95289 1.4 20.267 -65.4055 43.7251
88 25.9972 6.95289 1.4 22.1202 -77.8579 120.964
89 27.9972 6.95289 1.4 23.9969 -72.6124 -11.838
90 29.9972 6.95289 1.4 25.8922 -86.1317 116.968
91 -28.0028 8.95289 1.4 33.8907 -81.8058 -132.399
92 -26.0028 8.95289 1.4 31.9238 -82.0963 47.4879
93 -24.0028 8.95289 1.4 29.9613 -98.2697 43.374
94 -22.0028 8.95289 1.4 28.0042 -111.926 -133.23
95 -20.0028 8.95289 1.4 26.0535 -97.4408 -29.8389
96 -18.0028 8.95289 1.4 24.1109 -106.698 -91.1473
97 -16.0028 8.95289 1.4 22.1785 -82.0827 -165.796
98 -14.0028 8.95289 1.4 20.2592 -85.5556 65.0466
99 -12.0028 8.95289 1.4 18.3572 -80.4885 -39.2564
100 -10.0028 8.95289 1.4 16.4784 -76.2829 -176.408
101 -8.00282 8.95289 1.4 14.6318 -69.0426 165.795
102 -6.00282 8.95289 1.4 12.8312 -76.0028 59.0786
103 -4.00282 8.95289 1.4 11.0992 -68.9694 157.778
104 -2.00282 8.95289 1.4 9.47327 -62.285 -29.6276
105 -0.00282 8.95289 1.4 8.01834 -59.5968 -84.2462
106 1.99718 8.95289 1.4 6.84432 -62.7147 55.2364
107 3.99718 8.95289 1.4 6.1152 -52.7097 41.3642
108 5.99718 8.95289 1.4 5.99555 -57.1202 -55.9722
109 7.99718 8.95289 1.4 6.51902 -59.9409 162.18
110 9.99718 8.95289 1.4 7.55305 -66.4437 100.458
111 11.9972 8.95289 1.4 8.92185 -66.1265 133.161
112 13.9972 8.95289 1.4 10.4953 -68.296 162.354
113 15.9972 8.95289 1.4 12.1943 -67.1023 -128.608
114 17.9972 8.95289 1.4 13.9733 -83.0596 8.70274
115 19.9972 8.95289 1.4 15.8052 -68.4652 -163.664
116 21.9972 8.95289 1.4 17.6735 -66.5635 61.7189
117 23.9972 8.95289 1.4 19.568 -67.0981 -39.7094
118 25.9972 8.95289 1.4 21.4815 -79.7048 -109.083
119 27.9972 8.95289 1.4 23.4096 -82.1481 -32.2425
120 29.9972 8.95289 1.4 25.3487 -75.2963 -151.033
121 -28.0028 10.9529 1.4 33.5966 -95.5453 -29.3951
122 -26.0028 10.9529 1.4 31.6115 -80.8046 178.918
123 -24.0028 10.9529 1.4 29.6283 -95.9203 -72.7701
124 -22.0028 10.9529 1.4 27.6476 -92.5346 -16.4458
125 -20.0028 10.9529 1.4 25.6698 -79.0685 -41.1985
126 -18.0028 10.9529 1.4 23.6958 -97.2789 -100.164
127 -16.0028 10.9529 1.4 21.7265 -84.5369 172.718
128 -14.0028 10.9529 1.4 19.7634 -92.2602 156.183
129 -12.0028 10.9529 1.4 17.8085 -79.2231 12.907
130 -10.0028 10.9529 1.4 15.8648 -78.3356 86.386
131 -8.00282 10.9529 1.4 13.9371 -78.4808 146.096
132 -6.00282 10.9529 1.4 12.0331 -70.5654 -107.724
133 -4.00282 10.9529 1.4 10.1659 -71.8914 -167.919
134 -2.00282 10.9529 1.4 8.36042 -66.3293 3.06461
135 -0.00282 10.9529 1.4 6.6669 -75.5109 -68.6006
136 1.99718 10.9529 1.4 5.19601 -55.3952 -91.0459
137 3.99718 10.9529 1.4 4.18921 -55.1606 -59.4087
138 5.99718 10.9529 1.4 4.01254 -48.5158 -51.5174
139 7.99718 10.9529 1.4 4.75935 -49.2249 7.57583
140 9.99718 10.9529 1.4 6.09938 -60.7031 161.92
141 11.9972 10.9529 1.4 7.73003 -65.688 91.277
142 13.9972 10.9529 1.4 9.50286 -69.6391 -167.182
143 15.9972 10.9529 1.4 11.3514 -69.1274 177.966
144 17.9972 10.9529 1.4 13.2441 -66.2549 -135.835
145 19.9972 10.9529 1.4 15.1643 -73.9031 113.829
146 21.9972 10.9529 1.4 17.1029 -72.7185 -83.6514
147 23.9972 10.9529 1.4 19.0541 -79.2773 15.1588
148 25.9972 10.9529 1.4 21.0145 -75.7747 -130.732
149 27.9972 10.9529 1.4 22.9818 -83.8977 44.3349
150 29.9972 10.9529 1.4 24.9542 -84.5194 -85.4162
151 -28.0028 12.9529 1.4 33.4199 -86.281 116.743
152 -26.0028 12.9529 1.4 31.4235 -83.0036 -118.728
153 -24.0028 12.9529 1.4 29.4277 -87.2563 164.838
154 -22.0028 12.9529 1.4 27.4325 -75.9532 -67.8496
155 -20.0028 12.9529 1.4 25.438 -83.0815 -115.707
156 -18.0028 12.9529 1.4 23.4445 -70.7914 -6.90889
157 -16.0028 12.9529 1.4 21.4521 -72.8485 -20.3664
158 -14.0028 12.9529 1.4 19.4614 -77.65 88.4715
159 -12.0028 12.9529 1.4 17.4727 -74.7948 -65.9267
160 -10.0028 12.9529 1.4 15.487 -67.1664 59.8945
161 -8.00282 12.9529 1.4 13.5055 -68.068 67.5189
162 -6.00282 12.9529 1.4 11.5303 -65.026 -45.4075
163 -4.00282 12.9529 1.4 9.56554 -70.2633 -178.239
164 -2.00282 12.9529 1.4 7.61909 -58.6963 -144.07
165 -0.00282 12.9529 1.4 5.70977 -55.1252 -169.816
166 1.99718 12.9529 1.4 3.89261 -52.6312 127.754
167 3.99718 12.9529 1.4 2.38817 -47.3643 -102.066
168 5.99718 12.9529 1.4 2.0626 -50.0966 20.5677
169 7.99718 12.9529 1.4 3.28714 -54.4029 139.735
170 9.99718 12.9529 1.4 5.0355 -64.2234 62.3829
171 11.9972 12.9529 1.4 6.9215 -68.8172 87.4453
172 13.9972 12.9529 1.4 8.85766 -64.1848 21.1446
173 15.9972 12.9529 1.4 10.8171 -64.8824 27.353
174 17.9972 12.9529 1.4 12.7891 -67.2909 118.264
175 19.9972 12.9529 1.4 14.7686 -71.3216 144.527
176 21.9972 12.9529 1.4 16.753 -79.4082 158.777
177 23.9972 12.9529 1.4 18.7407 -67.8953 -174.386
178 25.9972 12.9529 1.4 20.7307 -73.4662 -37.2599
179 27.9972 12.9529 1.4 22.7226 -77.5514 -157.411
180 29.9972 12.9529 1.4 24.7157 -79.1587 18.9299
181 -28.0028 14.9529 1.4 33.3623 -83.2731 12.8201
182 -26.0028 14.9529 1.4 31.3623 -84.1544 45.2228
183 -24.0028 14.9529 1.4 29.3623 -88.2126 -24.0332
184 -22.0028 14.9529 1.4 27.3623 -79.9619 73.3924
185 -20.0028 14.9529 1.4 25.3623 -80.9272 -12.8326
186 -18.0028 14.9529 1.4 23.3623 -87.0962 -7.65849
187 -16.0028 14.9529 1.4 21.3623 -91.348 60.6515
188 -14.0028 14.9529 1.4 19.3623 -86.5332 103.714
189 -12.0028 14.9529 1.4 17.3623 -86.2712 75.7128
190 -10.0028 14.9529 1.4 15.3623 -73.691 135.427
191 -8.00282 14.9529 1.4 13.3623 -58.7807 51.9128
192 -6.00282 14.9529 1.4 11.3623 -53.6479 165.366
193 -4.00282 14.9529 1.4 9.36234 -55.8493 -57.9741
194 -2.00282 14.9529 1.4 7.36236 -51.6376 138.519
195 -0.00282 14.9529 1.4 5.3624 -48.2619 -71.9629
196 1.99718 14.9529 1.4 3.36248 -39.1902 60.2251
197 3.99718 14.9529 1.4 1.3628 -36.7078 -84.6078
198 5.99718 14.9529 1.4 0.638898 -33.9063 -86.1061
199 7.99718 14.9529 1.4 2.63802 -58.9444 -55.017
200 9.99718 14.9529 1.4 4.6379 -48.1721 -101.278
201 11.9972 14.9529 1.4 6.63785 -50.5655 73.0689
202 13.9972 14.9529 1.4 8.63782 -57.222 -63.2046
203 15.9972 14.9529 1.4 10.6378 -61.3387 119
204 17.9972 14.9529 1.4 12.6378 -74.575 -169.581
205 19.9972 14.9529 1.4 14.6378 -59.7313 123.094
206 21.9972 14.9529 1.4 16.6378 -76.8198 91.7836
207 23.9972 14.9529 1.4 18.6378 -82.9411 28.0825
208 25.9972 14.9529 1.4 20.6378 -79.5643 -26.8903
209 27.9972 14.9529 1.4 22.6378 -90.4994 -158.227
210 29.9972 14.9529 1.4 24.6378 -91.4042 48.1627
211 -28.0028 16.9529 1.4 33.4245 -79.1204 -82.0099
212 -26.0028 16.9529 1.4 31.4284 -74.868 168.598
213 -24.0028 16.9529 1.4 29.4329 -84.896 78.422
214 -22.0028 16.9529 1.4 27.4381 -79.3328 -70.2224
215 -20.0028 16.9529 1.4 25.444 -92.2964 -81.4125
216 -18.0028 16.9529 1.4 23.451 -84.7711 -32.0626
217 -16.0028 16.9529 1.4 21.4593 -84.719 -0.0232229
218 -14.0028 16.9529 1.4 19.4693 -86.1223 61.0745
219 -12.0028 16.9529 1.4 17.4815 -72.0067 62.7089
220 -10.0028 16.9529 1.4 15.4969 -56.2781 84.4965
221 -8.00282 16.9529 1.4 13.5169 -68.7992 103.156
222 -6.00282 16.9529 1.4 11.5437 -57.8289 53.5857
223 -4.00282 16.9529 1.4 9.58161 -52.3805 -32.6572
224 -2.00282 16.9529 1.4 7.63926 -63.273 111.466
225 -0.00282 16.9529 1.4 5.73665 -41.845 -107.199
226 1.99718 16.9529 1.4 3.93194 -44.5178 -111.673
227 3.99718 16.9529 1.4 2.45175 -49.7951 -40.7841
228 5.99718 16.9529 1.4 2.1359 -40.4402 -167.014
229 7.99718 16.9529 1.4 3.33362 -44.3032 -121.21
230 9.99718 16.9529 1.4 5.06596 -47.2333 71.6827
231 11.9972 16.9529 1.4 6.9437 -57.247 57.9081
232 13.9972 16.9529 1.4 8.87501 -55.622 -163.349
233 15.9972 16.9529 1.4 10.8313 -50.5343 -62.9115
234 17.9972 16.9529 1.4 12.8011 -55.4455 -131.648
235 19.9972 16.9529 1.4 14.779 -50.3795 67.2552
236 21.9972 16.9529 1.4 16.7622 -77.2961 116.536
237 23.9972 16.9529 1.4 18.7489 -83.8562 -125.532
238 25.9972 16.9529 1.4 20.7382 -95.4641 101.798
239 27.9972 16.9529 1.4 22.7293 -81.3248 -23.4162
240 29.9972 16.9529 1.4 24.7219 -96.9287 95.0216
241 -28.0028 18.9529 1.4 33.6058 -100.32 123.111
242 -26.0028 18.9529 1.4 31.6212 -98.8257 109.969
243 -24.0028 18.9529 1.4 29.6387 -91.67 -144.719
244 -22.0028 18.9529 1.4 27.6587 -80.7224 -106.895
245 -20.0028 18.9529 1.4 25.6818 -104.254 -171.077
246 -18.0028 18.9529 1.4 23.7087 -94.4644 42.9587
247 -16.0028 18.9529 1.4 21.7406 -77.4425 139.795
248 -14.0028 18.9529 1.4 19.7789 -73.7884 160.027
249 -12.0028 18.9529 1.4 17.8257 -65.6327 94.3264
250 -10.0028 18.9529 1.4 15.8842 -57.5475 -82.8246
251 -8.00282 18.9529 1.4 13.9592 -54.7218 -43.3358
252 -6.00282 18.9529 1.4 12.0586 -54.4354 -45.6351
253 -4.00282 18.9529 1.4 10.1961 -61.0736 -68.0991
254 -2.00282 18.9529 1.4 8.39715 -60.04 -60.9043
255 -0.00282 18.9529 1.4 6.7129 -50.7576 46.2537
256 1.99718 18.9529 1.4 5.2549 -46.9559 54.7081
257 3.99718 18.9529 1.4 4.26204 -40.8561 20.6973
258 5.99718 18.9529 1.4 4.08851 -57.4401 -151.382
259 7.99718 18.9529 1.4 4.82357 -51.4249 -111.776
260 9.99718 18.9529 1.4 6.14962 -53.8519 -113.062
261 11.9972 18.9529 1.4 7.76973 -50.9998 53.9559
262 13.9972 18.9529 1.4 9.53518 -70.9504 114.444
263 15.9972 18.9529 1.4 11.3785 -57.3082 125.954
264 17.9972 18.9529 1.4 13.2673 -65.9725 125.552
265 19.9972 18.9529 1.4 15.1846 -68.1227 39.7729
266 21.9972 18.9529 1.4 17.1209 -71.1823 152.793
267 23.9972 18.9529 1.4 19.0703 -83.1964 -124.223
268 25.9972 18.9529 1.4 21.0292 -82.5466 -112.957
269 27.9972 18.9529 1.4 22.9951 -94.1961 107.703
270 29.9972 18.9529 1.4 24.9665 -100.929 -156.662
