#Rx
# X(m), Y(m), Z(m), Distance(m), Power (dBm) Phase (deg)
1 -28.0028 2.95289 1.4 33.5641 -250 0
2 -26.0028 2.95289 1.4 31.5641 -250 0
3 -24.0028 2.95289 1.4 29.5641 -250 0
4 -22.0028 2.95289 1.4 27.5641 -250 0
5 -20.0028 2.95289 1.4 25.5641 -73.1472 -37.3101
6 -18.0028 2.95289 1.4 23.5642 -71.9177 3.66817
7 -16.0028 2.95289 1.4 21.5642 -66.0874 -7.64745
8 -14.0028 2.95289 1.4 19.5642 -62.5178 86.8467
9 -12.0028 2.95289 1.4 17.5643 -59.0807 -126.057
10 -10.0028 2.95289 1.4 15.5643 -75.013 -27.1936
11 -8.00282 2.95289 1.4 13.5644 -63.8834 123.889
12 -6.00282 2.95289 1.4 11.5645 -60.889 -102.616
13 -4.00282 2.95289 1.4 9.56465 -64.19 67.9306
14 -2.00282 2.95289 1.4 7.56486 -55.7719 -133.604
15 -0.00282 2.95289 1.4 5.56523 -50.9907 8.75107
16 1.99718 2.95289 1.4 3.566 -43.634 -161.286
17 3.99718 2.95289 1.4 1.56874 -46.2973 72.1945
18 5.99718 2.95289 1.4 0.453377 -27.6544 100.976
19 7.99718 2.95289 1.4 2.43929 -46.1824 -61.8751
20 9.99718 2.95289 1.4 4.43788 -52.5512 -172.848
21 11.9972 2.95289 1.4 6.43734 -47.5494 25.8395
22 13.9972 2.95289 1.4 8.43706 -58.0497 174.72
23 15.9972 2.95289 1.4 10.4369 -57.1515 118.734
24 17.9972 2.95289 1.4 12.4368 -65.5376 -128.027
25 19.9972 2.95289 1.4 14.4367 -59.5102 174.717
26 21.9972 2.95289 1.4 16.4366 -57.7054 16.7831
27 23.9972 2.95289 1.4 18.4366 -60.9923 -168.422
28 25.9972 2.95289 1.4 20.4365 -58.2457 -34.4812
29 27.9972 2.95289 1.4 22.4365 -72.1252 106.708
30 29.9972 2.95289 1.4 24.4365 -70.1297 -69.9242
31 -28.0028 4.95289 1.4 33.631 -250 0
32 -26.0028 4.95289 1.4 31.6352 -250 0
33 -24.0028 4.95289 1.4 29.64 -250 0
34 -22.0028 4.95289 1.4 27.6455 -250 0
35 -20.0028 4.95289 1.4 25.6519 -80.7828 157.787
36 -18.0028 4.95289 1.4 23.6594 -87.6672 175.036
37 -16.0028 4.95289 1.4 21.6682 -60.9314 -149.522
38 -14.0028 4.95289 1.4 19.6788 -60.2699 27.6872
39 -12.0028 4.95289 1.4 17.6918 -55.291 133.619
40 -10.0028 4.95289 1.4 15.7081 -58.2578 -50.4478
41 -8.00282 4.95289 1.4 13.7291 -61.3763 -22.2525
42 -6.00282 4.95289 1.4 11.7573 -56.6534 172.059
43 -4.00282 4.95289 1.4 9.79682 -60.8839 -104.262
44 -2.00282 4.95289 1.4 7.85635 -49.6931 91.7028
45 -0.00282 4.95289 1.4 5.95541 -55.6203 -7.70378
46 1.99718 4.95289 1.4 4.14867 -48.5207 -29.3185
47 3.99718 4.95289 1.4 2.63744 -42.0395 114.435
48 5.99718 4.95289 1.4 2.16811 -41.8576 87.692
49 7.99718 4.95289 1.4 3.23192 -52.3636 125.521
50 9.99718 4.95289 1.4 4.91832 -49.0037 163.672
51 11.9972 4.95289 1.4 6.7775 -52.6561 95.599
52 13.9972 4.95289 1.4 8.69937 -50.2893 149.916
53 15.9972 4.95289 1.4 10.6501 -47.6938 -117.58
54 17.9972 4.95289 1.4 12.6162 -54.152 76.0561
55 19.9972 4.95289 1.4 14.5915 -58.118 -51.9125
56 21.9972 4.95289 1.4 16.5728 -61.5134 -121.186
57 23.9972 4.95289 1.4 18.5581 -53.8158 97.7703
58 25.9972 4.95289 1.4 20.5462 -82.7257 -31.8059
59 27.9972 4.95289 1.4 22.5364 -87.4186 102.462
60 29.9972 4.95289 1.4 24.5283 -75.5517 -14.4794
61 -28.0028 6.95289 1.4 33.8162 -118.303 59.8915
62 -26.0028 6.95289 1.4 31.8321 -138.698 -76.1105
63 -24.0028 6.95289 1.4 29.8501 -250 0
64 -22.0028 6.95289 1.4 27.8706 -250 0
65 -20.0028 6.95289 1.4 25.8943 -94.3339 -171.242
66 -18.0028 6.95289 1.4 23.922 -89.0608 33.7243
67 -16.0028 6.95289 1.4 21.9546 -60.3246 5.39951
68 -14.0028 6.95289 1.4 19.9937 -68.6377 105.546
69 -12.0028 6.95289 1.4 18.0415 -56.6003 -85.4771
70 -10.0028 6.95289 1.4 16.1009 -60.7442 130.836
71 -8.00282 6.95289 1.4 14.1769 -61.5545 101.911
72 -6.00282 6.95289 1.4 12.2771 -53.5822 -73.94
73 -4.00282 6.95289 1.4 10.415 -58.6794 99.0122
74 -2.00282 6.95289 1.4 8.61495 -55.0067 68.3471
75 -0.00282 6.95289 1.4 6.92546 -54.5988 72.8429
76 1.99718 6.95289 1.4 5.45038 -62.2976 -55.3679
77 3.99718 6.95289 1.4 4.41035 -44.1074 -83.979
78 5.99718 6.95289 1.4 4.14678 -48.3085 -23.5826
79 7.99718 6.95289 1.4 4.78962 -62.5514 115.495
80 9.99718 6.95289 1.4 6.05682 -52.0223 136.62
81 11.9972 6.95289 1.4 7.64393 -52.2388 137.47
82 13.9972 6.95289 1.4 9.39011 -49.3995 -54.8079
83 15.9972 6.95289 1.4 11.2214 -58.2099 101.311
84 17.9972 6.95289 1.4 13.102 -62.463 104.428
85 19.9972 6.95289 1.4 15.0136 -60.2245 -166.935
86 21.9972 6.95289 1.4 16.9456 -74.7618 109.865
87 23.9972 6.95289 1.4 18.8917 -62.0916 43.2497
88 25.9972 6.95289 1.4 20.8481 -72.6858 -145.077
89 27.9972 6.95289 1.4 22.812 -78.7765 114.81
90 29.9972 6.95289 1.4 24.7817 -86.3615 -80.1134
91 -28.0028 8.95289 1.4 34.1179 -115.232 8.21345
92 -26.0028 8.95289 1.4 32.1524 -101.538 77.689
93 -24.0028 8.95289 1.4 30.1914 -116.549 -42.2859
94 -22.0028 8.95289 1.4 28.2359 -148.676 -77.1003
95 -20.0028 8.95289 1.4 26.2871 -99.7012 109.863
96 -18.0028 8.95289 1.4 24.3466 -83.7756 120.095
97 -16.0028 8.95289 1.4 22.4165 -62.6965 -167.367
98 -14.0028 8.95289 1.4 20.4999 -63.2548 113.321
99 -12.0028 8.95289 1.4 18.6008 -64.3534 -93.2226
100 -10.0028 8.95289 1.4 16.7253 -58.2918 -160.487
101 -8.00282 8.95289 1.4 14.8822 -74.929 161.468
102 -6.00282 8.95289 1.4 13.0852 -63.6319 170.234
103 -4.00282 8.95289 1.4 11.3564 -62.4764 -84.5151
104 -2.00282 8.95289 1.4 9.73204 -51.1544 101.71
105 -0.00282 8.95289 1.4 8.27388 -57.573 -162.904
106 1.99718 8.95289 1.4 7.08532 -54.4717 63.6499
107 3.99718 8.95289 1.4 6.32031 -47.7442 -11.1729
108 5.99718 8.95289 1.4 6.1393 -50.1122 -46.7167
109 7.99718 8.95289 1.4 6.59057 -53.587 -137.578
110 9.99718 8.95289 1.4 7.56176 -63.6479 150.057
111 11.9972 8.95289 1.4 8.88396 -58.3159 120.01
112 13.9972 8.95289 1.4 10.4245 -61.0998 105.181
113 15.9972 8.95289 1.4 12.1002 -53.4627 148.096
114 17.9972 8.95289 1.4 13.8621 -69.7558 162.011
115 19.9972 8.95289 1.4 15.6813 -64.502 161.783
116 21.9972 8.95289 1.4 17.5399 -70.5487 86.1426
117 23.9972 8.95289 1.4 19.4266 -65.0079 -116.833
118 25.9972 8.95289 1.4 21.3339 -85.8079 14.1602
119 27.9972 8.95289 1.4 23.2569 -83.782 -82.315
120 29.9972 8.95289 1.4 25.1918 -82.3692 -160.368
121 -28.0028 10.9529 1.4 34.533 -105.506 116.107
122 -26.0028 10.9529 1.4 32.5925 -106.443 170.556
123 -24.0028 10.9529 1.4 30.6597 -96.206 78.749
124 -22.0028 10.9529 1.4 28.7361 -101.822 -86.625
125 -20.0028 10.9529 1.4 26.8236 -93.8648 30.5266
126 -18.0028 10.9529 1.4 24.9249 -84.5551 167.334
127 -16.0028 10.9529 1.4 23.0433 -78.4294 -128.11
128 -14.0028 10.9529 1.4 21.1835 -67.585 14.2786
129 -12.0028 10.9529 1.4 19.3516 -63.3326 42.5146
130 -10.0028 10.9529 1.4 17.5565 -74.6055 -69.3568
131 -8.00282 10.9529 1.4 15.8106 -60.1244 69.6036
132 -6.00282 10.9529 1.4 14.1322 -57.8084 26.8962
133 -4.00282 10.9529 1.4 12.5484 -50.1158 112.099
134 -2.00282 10.9529 1.4 11.0999 -52.7906 53.5075
135 -0.00282 10.9529 1.4 9.84643 -58.3648 -56.0686
136 1.99718 10.9529 1.4 8.87113 -54.1741 -58.5459
137 3.99718 10.9529 1.4 8.27294 -56.8995 11.588
138 5.99718 10.9529 1.4 8.13548 -42.8575 42.7115
139 7.99718 10.9529 1.4 8.4812 -50.9523 113.191
140 9.99718 10.9529 1.4 9.25609 -53.7356 -159.859
141 11.9972 10.9529 1.4 10.3644 -56.3733 63.3958
142 13.9972 10.9529 1.4 11.7117 -56.6605 21.1514
143 15.9972 10.9529 1.4 13.2253 -58.418 -32.7348
144 17.9972 10.9529 1.4 14.8544 -61.4157 -106.276
145 19.9972 10.9529 1.4 16.565 -63.2597 149.277
146 21.9972 10.9529 1.4 18.3342 -65.9775 4.60606
147 23.9972 10.9529 1.4 20.1467 -69.2697 -110.463
148 25.9972 10.9529 1.4 21.9916 -74.3036 110.314
149 27.9972 10.9529 1.4 23.8616 -75.4688 -80.7431
150 29.9972 10.9529 1.4 25.7511 -83.8363 155.265
151 -28.0028 12.9529 1.4 35.0574 -100.934 90.398
152 -26.0028 12.9529 1.4 33.1477 -88.884 -116.3
153 -24.0028 12.9529 1.4 31.2492 -77.8145 9.22767
154 -22.0028 12.9529 1.4 29.3642 -85.6199 84.5436
155 -20.0028 12.9529 1.4 27.4955 -75.1362 101.946
156 -18.0028 12.9529 1.4 25.6466 -85.5507 -28.7779
157 -16.0028 12.9529 1.4 23.8221 -76.448 144.678
158 -14.0028 12.9529 1.4 22.0281 -69.3101 48.3715
159 -12.0028 12.9529 1.4 20.2726 -79.5022 -99.879
160 -10.0028 12.9529 1.4 18.5668 -73.3401 126.002
161 -8.00282 12.9529 1.4 16.9254 -81.6814 -26.2551
162 -6.00282 12.9529 1.4 15.3692 -64.2406 121.554
163 -4.00282 12.9529 1.4 13.9269 -70.3548 122.799
164 -2.00282 12.9529 1.4 12.6374 -69.2429 -66.5413
165 -0.00282 12.9529 1.4 11.5519 -78.8775 -88.7505
166 1.99718 12.9529 1.4 10.7328 -62.3366 74.353
167 3.99718 12.9529 1.4 10.2439 -54.4505 -94.6014
168 5.99718 12.9529 1.4 10.1332 -55.5307 -164.294
169 7.99718 12.9529 1.4 10.4128 -65.0121 111.326
170 9.99718 12.9529 1.4 11.0531 -57.8256 -33.011
171 11.9972 12.9529 1.4 11.9965 -58.2739 -84.3331
172 13.9972 12.9529 1.4 13.178 -62.5411 118.696
173 15.9972 12.9529 1.4 14.5397 -70.9858 39.3278
174 17.9972 12.9529 1.4 16.0359 -63.061 -95.8656
175 19.9972 12.9529 1.4 17.6322 -72.4618 94.1974
176 21.9972 12.9529 1.4 19.3038 -64.9623 -81.7761
177 23.9972 12.9529 1.4 21.0329 -70.8461 1.37638
178 25.9972 12.9529 1.4 22.8063 -82.3641 15.6945
179 27.9972 12.9529 1.4 24.6145 -82.9352 109.976
180 29.9972 12.9529 1.4 26.4503 -93.2928 21.8506
181 -28.0028 14.9529 1.4 35.6864 -94.1164 78.391
182 -26.0028 14.9529 1.4 33.8122 -91.5452 -44.4776
183 -24.0028 14.9529 1.4 31.9532 -70.5782 -162.023
184 -22.0028 14.9529 1.4 30.1123 -88.7855 -58.1516
185 -20.0028 14.9529 1.4 28.293 -104.261 60.3518
186 -18.0028 14.9529 1.4 26.4998 -114.024 -86.8482
187 -16.0028 14.9529 1.4 24.7383 -93.5692 135.407
188 -14.0028 14.9529 1.4 23.0159 -95.6334 -68.7475
189 -12.0028 14.9529 1.4 21.3419 -93.0234 -153.458
190 -10.0028 14.9529 1.4 19.7286 -91.6464 43.9754
191 -8.00282 14.9529 1.4 18.1924 -79.3092 -134.08
192 -6.00282 14.9529 1.4 16.7544 -67.6698 -5.33175
193 -4.00282 14.9529 1.4 15.4419 -85.1854 22.8186
194 -2.00282 14.9529 1.4 14.2898 -86.843 -70.1686
195 -0.00282 14.9529 1.4 13.3395 -69.2576 154.615
196 1.99718 14.9529 1.4 12.6367 -66.4707 89.2237
197 3.99718 14.9529 1.4 12.2242 -57.841 151.6
198 5.99718 14.9529 1.4 12.1316 -53.4105 58.1829
199 7.99718 14.9529 1.4 12.3661 -65.9182 174.619
200 9.99718 14.9529 1.4 12.9099 -56.8637 -17.4693
201 11.9972 14.9529 1.4 13.7263 -63.3534 -122.821
202 13.9972 14.9529 1.4 14.7701 -64.2846 160.016
203 15.9972 14.9529 1.4 15.9969 -69.8637 120.719
204 17.9972 14.9529 1.4 17.3679 -63.9712 18.1789
205 19.9972 14.9529 1.4 18.8518 -68.6293 -20.8493
206 21.9972 14.9529 1.4 20.4238 -78.672 31.0417
207 23.9972 14.9529 1.4 22.0653 -103.958 95.2889
208 25.9972 14.9529 1.4 23.7618 -85.1631 48.6598
209 27.9972 14.9529 1.4 25.5023 -96.0759 78.3131
210 29.9972 14.9529 1.4 27.2784 -96.1754 -155.819
211 -28.0028 16.9529 1.4 36.4145 -86.9357 46.6791
212 -26.0028 16.9529 1.4 34.5797 -90.5681 -88.3719
213 -24.0028 16.9529 1.4 32.7643 -92.422 27.8527
214 -22.0028 16.9529 1.4 30.9717 -75.2336 -47.3995
215 -20.0028 16.9529 1.4 29.206 -98.3931 -152.567
216 -18.0028 16.9529 1.4 27.4725 -119.396 2.91111
217 -16.0028 16.9529 1.4 25.7775 -94.0309 66.3453
218 -14.0028 16.9529 1.4 24.1293 -97.353 -174.948
219 -12.0028 16.9529 1.4 22.5382 -91.3557 32.1134
220 -10.0028 16.9529 1.4 21.017 -78.8493 58.4953
221 -8.00282 16.9529 1.4 19.5821 -69.1095 55.3942
222 -6.00282 16.9529 1.4 18.2539 -65.4888 -77.5592
223 -4.00282 16.9529 1.4 17.0572 -66.5278 -94.726
224 -2.00282 16.9529 1.4 16.0216 -68.1097 -14.978
225 -0.00282 16.9529 1.4 15.1802 -64.5079 -36.4107
226 1.99718 16.9529 1.4 14.5665 -67.439 62.3095
227 3.99718 16.9529 1.4 14.2101 -58.3087 151.369
228 5.99718 16.9529 1.4 14.1305 -59.6886 175.976
229 7.99718 16.9529 1.4 14.3323 -70.0791 66.0245
230 9.99718 16.9529 1.4 14.8041 -61.2491 68.4737
231 11.9972 16.9529 1.4 15.5211 -67.5445 81.6663
232 13.9972 16.9529 1.4 16.4514 -74.8854 -18.2905
233 15.9972 16.9529 1.4 17.5612 -60.2423 163.169
234 17.9972 16.9529 1.4 18.8186 -71.1148 121.849
235 19.9972 16.9529 1.4 20.1961 -61.2019 -38.6479
236 21.9972 16.9529 1.4 21.6709 -82.277 -48.8251
237 23.9972 16.9529 1.4 23.2244 -117.301 72.1015
238 25.9972 16.9529 1.4 24.8419 -100.778 -128.689
239 27.9972 16.9529 1.4 26.5115 -89.3203 -129.083
240 29.9972 16.9529 1.4 28.2242 -99.2936 -57.3642
241 -28.0028 18.9529 1.4 37.2358 -102.036 -105.85
242 -26.0028 18.9529 1.4 35.4437 -250 0
243 -24.0028 18.9529 1.4 33.6749 -121.224 -78.1267
244 -22.0028 18.9529 1.4 31.9334 -124.75 -84.7116
245 -20.0028 18.9529 1.4 30.2239 -107.709 133.735
246 -18.0028 18.9529 1.4 28.5523 -94.914 -41.8259
247 -16.0028 18.9529 1.4 26.9254 -90.5478 144.365
248 -14.0028 18.9529 1.4 25.3519 -96.9615 94.9789
249 -12.0028 18.9529 1.4 23.8425 -85.7631 84.5537
250 -10.0028 18.9529 1.4 22.41 -83.3132 142.24
251 -8.00282 18.9529 1.4 21.0702 -71.102 -64.3042
252 -6.00282 18.9529 1.4 19.8418 -72.0168 -51.0958
253 -4.00282 18.9529 1.4 18.7468 -76.821 -97.17
254 -2.00282 18.9529 1.4 17.8098 -72.2327 -64.3328
255 -0.00282 18.9529 1.4 17.0568 -59.9376 29.2204
256 1.99718 18.9529 1.4 16.5129 -66.5345 158.113
257 3.99718 18.9529 1.4 16.1994 -68.3119 31.7307
258 5.99718 18.9529 1.4 16.1297 -51.6325 87.7428
259 7.99718 18.9529 1.4 16.3068 -59.123 12.9253
260 9.99718 18.9529 1.4 16.7229 -56.4934 -87.7889
261 11.9972 18.9529 1.4 17.3609 -64.1142 -99.2093
262 13.9972 18.9529 1.4 18.1974 -59.6634 60.3126
263 15.9972 18.9529 1.4 19.2065 -64.3061 -69.7779
264 17.9972 18.9529 1.4 20.3626 -75.4609 -141.986
265 19.9972 18.9529 1.4 21.6421 -71.6619 30.0669
266 21.9972 18.9529 1.4 23.0244 -88.5275 174.923
267 23.9972 18.9529 1.4 24.4922 -82.5093 -85.3402
268 25.9972 18.9529 1.4 26.031 -85.7557 -120.731
269 27.9972 18.9529 1.4 27.6289 -92.8056 60.6432
270 29.9972 18.9529 1.4 29.2763 -109.615 103.947
