#Rx
# X(m), Y(m), Z(m), Distance(m), Power (dBm) Phase (deg)
1 -28.0028 2.95289 1.4 25.0488 -91.849 -92.224
2 -26.0028 2.95289 1.4 23.3753 -87.0966 -42.662
3 -24.0028 2.95289 1.4 21.7569 -91.8924 52.8471
4 -22.0028 2.95289 1.4 20.2071 -91.5511 -116.17
5 -20.0028 2.95289 1.4 18.7427 -97.1913 102.485
6 -18.0028 2.95289 1.4 17.3853 -85.3432 -22.1029
7 -16.0028 2.95289 1.4 16.162 -71.3358 11.6677
8 -14.0028 2.95289 1.4 15.1053 -72.6658 -147.042
9 -12.0028 2.95289 1.4 14.2525 -86.4472 123.957
10 -10.0028 2.95289 1.4 13.6416 -63.453 12.6209
11 -8.00282 2.95289 1.4 13.3062 -56.3328 131.304
12 -6.00282 2.95289 1.4 13.2671 -47.605 -15.3685
13 -4.00282 2.95289 1.4 13.527 -64.8326 48.3331
14 -2.00282 2.95289 1.4 14.0691 -56.4765 74.4817
15 -0.00282 2.95289 1.4 14.8628 -75.7784 114.673
16 1.99718 2.95289 1.4 15.8702 -71.9068 -165.159
17 3.99718 2.95289 1.4 17.0536 -63.6694 -49.2227
18 5.99718 2.95289 1.4 18.3789 -65.2432 -128.109
19 7.99718 2.95289 1.4 19.8178 -67.4603 -83.6897
20 9.99718 2.95289 1.4 21.3473 -63.1422 54.8622
21 11.9972 2.95289 1.4 22.9493 -68.5148 -2.83759
22 13.9972 2.95289 1.4 24.6096 -66.9405 162.229
23 15.9972 2.95289 1.4 26.3172 -65.8594 65.8848
24 17.9972 2.95289 1.4 28.0634 -67.0486 160.845
25 19.9972 2.95289 1.4 29.8415 -79.3659 -175.192
26 21.9972 2.95289 1.4 31.6461 -80.2362 -111.885
27 23.9972 2.95289 1.4 33.473 -75.3798 -131.341
28 25.9972 2.95289 1.4 35.3186 -76.215 104.978
29 27.9972 2.95289 1.4 37.1801 -74.34 100.526
30 29.9972 2.95289 1.4 39.0554 -75.58 -14.2733
31 -28.0028 4.95289 1.4 24.0511 -90.8151 -38.6372
32 -26.0028 4.95289 1.4 22.3028 -85.7289 77.4002
33 -24.0028 4.95289 1.4 20.6004 -97.412 -115.864
34 -22.0028 4.95289 1.4 18.9563 -92.0818 -81.5149
35 -20.0028 4.95289 1.4 17.3868 -83.7456 -96.7988
36 -18.0028 4.95289 1.4 15.9142 -82.8172 90.7482
37 -16.0028 4.95289 1.4 14.5679 -64.0692 34.6918
38 -14.0028 4.95289 1.4 13.386 -73.7515 -90.257
39 -12.0028 4.95289 1.4 12.4156 -63.1028 135.691
40 -10.0028 4.95289 1.4 11.7093 -73.6498 26.9944
41 -8.00282 4.95289 1.4 11.3168 -58.4927 -49.3693
42 -6.00282 4.95289 1.4 11.2708 -48.7656 119.821
43 -4.00282 4.95289 1.4 11.5755 -69.7775 36.6935
44 -2.00282 4.95289 1.4 12.2047 -65.8247 176.763
45 -0.00282 4.95289 1.4 13.1117 -78.3012 82.6144
46 1.99718 4.95289 1.4 14.2435 -64.5314 47.4065
47 3.99718 4.95289 1.4 15.5512 -66.7668 -20.6778
48 5.99718 4.95289 1.4 16.9941 -63.3964 -33.4685
49 7.99718 4.95289 1.4 18.5408 -82.6884 -4.74436
50 9.99718 4.95289 1.4 20.1674 -62.8667 -65.6451
51 11.9972 4.95289 1.4 21.856 -69.8107 16.1785
52 13.9972 4.95289 1.4 23.5933 -70.7314 -139.653
53 15.9972 4.95289 1.4 25.3694 -76.1233 24.6718
54 17.9972 4.95289 1.4 27.1766 -74.5078 -69.6514
55 19.9972 4.95289 1.4 29.0091 -77.3391 75.2454
56 21.9972 4.95289 1.4 30.8625 -72.4038 168.331
57 23.9972 4.95289 1.4 32.7331 -78.4668 -167.805
58 25.9972 4.95289 1.4 34.6181 -70.7656 -163.442
59 27.9972 4.95289 1.4 36.5154 -79.8776 19.1956
60 29.9972 4.95289 1.4 38.4231 -77.7181 -56.4518
61 -28.0028 6.95289 1.4 23.1834 -75.9602 91.3045
62 -26.0028 6.95289 1.4 21.3642 -85.7396 111.859
63 -24.0028 6.95289 1.4 19.5804 -97.6633 65.8539
64 -22.0028 6.95289 1.4 17.8425 -88.8177 134.49
65 -20.0028 6.95289 1.4 16.1653 -77.498 -46.2535
66 -18.0028 6.95289 1.4 14.5697 -75.7318 -90.56
67 -16.0028 6.95289 1.4 13.0858 -73.2077 178.104
68 -14.0028 6.95289 1.4 11.7558 -68.0865 36.018
69 -12.0028 6.95289 1.4 10.6377 -70.7737 -15.2864
70 -10.0028 6.95289 1.4 9.80421 -69.1888 176.875
71 -8.00282 6.95289 1.4 9.33188 -59.9621 40.3546
72 -6.00282 6.95289 1.4 9.27606 -65.507 -102.201
73 -4.00282 6.95289 1.4 9.644 -75.1179 -165.93
74 -2.00282 6.95289 1.4 10.3908 -66.0607 -129.582
75 -0.00282 6.95289 1.4 11.4424 -61.4478 20.7912
76 1.99718 6.95289 1.4 12.7236 -63.2202 1.00462
77 3.99718 6.95289 1.4 14.1722 -68.7341 19.0345
78 5.99718 6.95289 1.4 15.7421 -66.3294 30.1467
79 7.99718 6.95289 1.4 17.4004 -77.4661 -5.26544
80 9.99718 6.95289 1.4 19.1242 -91.9884 42.3084
81 11.9972 6.95289 1.4 20.8973 -67.1208 -81.2716
82 13.9972 6.95289 1.4 22.7081 -78.9743 16.7574
83 15.9972 6.95289 1.4 24.5483 -75.7283 -29.9708
84 17.9972 6.95289 1.4 26.4118 -78.4183 -107.019
85 19.9972 6.95289 1.4 28.2939 -71.1803 -97.9131
86 21.9972 6.95289 1.4 30.1911 -71.2098 61.5224
87 23.9972 6.95289 1.4 32.1009 -69.3556 146.583
88 25.9972 6.95289 1.4 34.021 -87.6171 73.7225
89 27.9972 6.95289 1.4 35.9498 -78.0388 134.722
90 29.9972 6.95289 1.4 37.886 -70.6742 14.3544
91 -28.0028 8.95289 1.4 22.4607 -84.836 -129.341
92 -26.0028 8.95289 1.4 20.5778 -88.4691 122.17
93 -24.0028 8.95289 1.4 18.7191 -76.9456 79.9597
94 -22.0028 8.95289 1.4 16.8928 -94.968 52.2179
95 -20.0028 8.95289 1.4 15.1106 -75.9448 -63.0906
96 -18.0028 8.95289 1.4 13.39 -94.737 -82.8298
97 -16.0028 8.95289 1.4 11.7581 -66.1089 57.6568
98 -14.0028 8.95289 1.4 10.2574 -66.346 -104.92
99 -12.0028 8.95289 1.4 8.95406 -63.1894 -94.156
100 -10.0028 8.95289 1.4 7.94585 -74.939 98.8966
101 -8.00282 8.95289 1.4 7.35514 -58.2192 171.677
102 -6.00282 8.95289 1.4 7.28419 -53.5444 78.5973
103 -4.00282 8.95289 1.4 7.74732 -67.1565 103.898
104 -2.00282 8.95289 1.4 8.65923 -51.1282 -38.7712
105 -0.00282 8.95289 1.4 9.89665 -62.9495 46.6643
106 1.99718 8.95289 1.4 11.3536 -58.2944 -9.54047
107 3.99718 8.95289 1.4 12.9563 -59.7929 10.7231
108 5.99718 8.95289 1.4 14.657 -60.4906 -1.55897
109 7.99718 8.95289 1.4 16.4253 -65.4657 -109.844
110 9.99718 8.95289 1.4 18.2415 -75.4172 -129.812
111 11.9972 8.95289 1.4 20.0926 -78.9718 148.103
112 13.9972 8.95289 1.4 21.9698 -74.1847 -78.1562
113 15.9972 8.95289 1.4 23.867 -81.0998 12.6294
114 17.9972 8.95289 1.4 25.7798 -77.1775 179.329
115 19.9972 8.95289 1.4 27.7048 -78.9129 60.5733
116 21.9972 8.95289 1.4 29.6398 -76.5561 -113.544
117 23.9972 8.95289 1.4 31.5829 -75.9222 68.0677
118 25.9972 8.95289 1.4 33.5327 -63.2547 -75.8378
119 27.9972 8.95289 1.4 35.4881 -82.857 -158.422
120 29.9972 8.95289 1.4 37.4482 -66.544 166.965
121 -28.0028 10.9529 1.4 21.8974 -80.1851 17.1051
122 -26.0028 10.9529 1.4 19.9614 -65.9889 3.46524
123 -24.0028 10.9529 1.4 18.0394 -78.8062 -77.4787
124 -22.0028 10.9529 1.4 16.1364 -67.8198 0.859408
125 -20.0028 10.9529 1.4 14.2599 -73.9318 142.543
126 -18.0028 10.9529 1.4 12.422 -71.4481 -146.606
127 -16.0028 10.9529 1.4 10.6427 -73.4352 0.937409
128 -14.0028 10.9529 1.4 8.957 -67.7392 38.0617
129 -12.0028 10.9529 1.4 7.42895 -65.5748 -126.881
130 -10.0028 10.9529 1.4 6.17663 -55.797 -166.363
131 -8.00282 10.9529 1.4 5.39557 -77.8077 -170.978
132 -6.00282 10.9529 1.4 5.29845 -48.8706 -94.6523
133 -4.00282 10.9529 1.4 5.91904 -71.0582 22.2277
134 -2.00282 10.9529 1.4 7.07082 -60.0312 77.8586
135 -0.00282 10.9529 1.4 8.54154 -63.7489 42.1869
136 1.99718 10.9529 1.4 10.1941 -58.125 -131.012
137 3.99718 10.9529 1.4 11.9533 -64.2733 41.8527
138 5.99718 10.9529 1.4 13.7783 -66.4805 -64.8494
139 7.99718 10.9529 1.4 15.6462 -67.5858 -45.5887
140 9.99718 10.9529 1.4 17.5432 -71.4214 10.15
141 11.9972 10.9529 1.4 19.4609 -65.7085 -123.489
142 13.9972 10.9529 1.4 21.3936 -70.4524 -27.4566
143 15.9972 10.9529 1.4 23.3377 -76.0055 -44.0827
144 17.9972 10.9529 1.4 25.2905 -65.6607 178.748
145 19.9972 10.9529 1.4 27.2502 -68.5583 173.448
146 21.9972 10.9529 1.4 29.2153 -61.676 55.5124
147 23.9972 10.9529 1.4 31.1849 -63.503 -53.8489
148 25.9972 10.9529 1.4 33.1581 -59.1961 92.1889
149 27.9972 10.9529 1.4 35.1343 -63.3111 0.819004
150 29.9972 10.9529 1.4 37.1131 -64.9159 175.599
151 -28.0028 12.9529 1.4 21.5061 -69.8822 174.137
152 -26.0028 12.9529 1.4 19.5313 -63.7344 113.297
153 -24.0028 12.9529 1.4 17.5623 -70.8897 -103.244
154 -22.0028 12.9529 1.4 15.6012 -67.4522 -81.1687
155 -20.0028 12.9529 1.4 13.6513 -65.081 95.4259
156 -18.0028 12.9529 1.4 11.7183 -58.2222 167.718
157 -16.0028 12.9529 1.4 9.81226 -56.6481 -100.17
158 -14.0028 12.9529 1.4 7.95248 -62.4792 29.3048
159 -12.0028 12.9529 1.4 6.18089 -64.1804 131.377
160 -10.0028 12.9529 1.4 4.60053 -53.0847 -105.153
161 -8.00282 12.9529 1.4 3.48228 -59.3865 -44.8942
162 -6.00282 12.9529 1.4 3.32982 -40.1099 -128.329
163 -4.00282 12.9529 1.4 4.24843 -45.2087 31.5122
164 -2.00282 12.9529 1.4 5.74548 -58.4957 -66.666
165 -0.00282 12.9529 1.4 7.48144 -69.1295 -134.145
166 1.99718 12.9529 1.4 9.32381 -57.8759 -117.919
167 3.99718 12.9529 1.4 11.2203 -55.3075 -75.9381
168 5.99718 12.9529 1.4 13.1475 -57.6755 -142.805
169 7.99718 12.9529 1.4 15.0936 -70.7885 179.097
170 9.99718 12.9529 1.4 17.0522 -61.5632 -62.2808
171 11.9972 12.9529 1.4 19.0195 -59.9051 -116.118
172 13.9972 12.9529 1.4 20.9929 -64.1025 -41.9877
173 15.9972 12.9529 1.4 22.9709 -58.7855 -71.344
174 17.9972 12.9529 1.4 24.9525 -65.0017 -75.5037
175 19.9972 12.9529 1.4 26.9367 -67.1376 48.6511
176 21.9972 12.9529 1.4 28.9231 -66.9756 101.976
177 23.9972 12.9529 1.4 30.9113 -64.7848 124.845
178 25.9972 12.9529 1.4 32.9009 -72.6938 -139.88
179 27.9972 12.9529 1.4 34.8917 -61.9671 -131.589
180 29.9972 12.9529 1.4 36.8835 -64.074 -167.304
181 -28.0028 14.9529 1.4 21.2962 -63.4809 -80.7683
182 -26.0028 14.9529 1.4 19.2999 -71.3406 -4.95457
183 -24.0028 14.9529 1.4 17.3046 -78.9817 84.0622
184 -22.0028 14.9529 1.4 15.3105 -69.6331 -143.145
185 -20.0028 14.9529 1.4 13.3181 -59.588 81.2386
186 -18.0028 14.9529 1.4 11.3284 -60.2482 168.52
187 -16.0028 14.9529 1.4 9.34316 -50.5214 37.7867
188 -14.0028 14.9529 1.4 7.36587 -57.0314 82.7238
189 -12.0028 14.9529 1.4 5.40532 -48.74 -59.2478
190 -10.0028 14.9529 1.4 3.48984 -41.34 124.332
191 -8.00282 14.9529 1.4 1.77211 -41.0975 -131.348
192 -6.00282 14.9529 1.4 1.44977 -35.8175 23.5894
193 -4.00282 14.9529 1.4 3.01052 -47.0847 -120.453
194 -2.00282 14.9529 1.4 4.9015 -52.0379 18.4312
195 -0.00282 14.9529 1.4 6.85464 -51.1448 165.191
196 1.99718 14.9529 1.4 8.82879 -58.3683 146.394
197 3.99718 14.9529 1.4 10.8124 -58.3473 -20.3099
198 5.99718 14.9529 1.4 12.8012 -63.4495 166.042
199 7.99718 14.9529 1.4 14.793 -63.2862 69.8759
200 9.99718 14.9529 1.4 16.7867 -76.7751 -32.4444
201 11.9972 14.9529 1.4 18.7818 -72.3761 168.137
202 13.9972 14.9529 1.4 20.7778 -77.032 8.39565
203 15.9972 14.9529 1.4 22.7745 -74.3216 -3.49742
204 17.9972 14.9529 1.4 24.7717 -82.0329 125.951
205 19.9972 14.9529 1.4 26.7694 -78.7805 178.87
206 21.9972 14.9529 1.4 28.7674 -70.3418 104.56
207 23.9972 14.9529 1.4 30.7656 -79.466 -12.7992
208 25.9972 14.9529 1.4 32.7641 -86.0427 -72.7773
209 27.9972 14.9529 1.4 34.7627 -88.8505 -80.8632
210 29.9972 14.9529 1.4 36.7615 -82.565 20.1136
211 -28.0028 16.9529 1.4 21.273 -79.4879 -3.40019
212 -26.0028 16.9529 1.4 19.2744 -76.188 104.818
213 -24.0028 16.9529 1.4 17.2761 -69.8546 139.445
214 -22.0028 16.9529 1.4 15.2782 -70.1207 -7.17057
215 -20.0028 16.9529 1.4 13.281 -56.4749 -164.815
216 -18.0028 16.9529 1.4 11.2848 -67.3987 -69.124
217 -16.0028 16.9529 1.4 9.29025 -53.2521 131.52
218 -14.0028 16.9529 1.4 7.29864 -54.0235 -64.2369
219 -12.0028 16.9529 1.4 5.31335 -55.1846 102.137
220 -10.0028 16.9529 1.4 3.3456 -44.7912 126.421
221 -8.00282 16.9529 1.4 1.46782 -40.3827 -14.8424
222 -6.00282 16.9529 1.4 1.05638 -35.6034 152.875
223 -4.00282 16.9529 1.4 2.84207 -43.1389 -65.9997
224 -2.00282 16.9529 1.4 4.79988 -41.4124 -174.328
225 -0.00282 16.9529 1.4 6.78235 -52.4651 64.1677
226 1.99718 16.9529 1.4 8.77278 -55.3968 28.0508
227 3.99718 16.9529 1.4 10.7668 -54.6149 57.2024
228 5.99718 16.9529 1.4 12.7626 -65.1788 -38.5212
229 7.99718 16.9529 1.4 14.7596 -57.7693 55.9129
230 9.99718 16.9529 1.4 16.7573 -60.0562 -46.4026
231 11.9972 16.9529 1.4 18.7555 -70.7391 -17.8595
232 13.9972 16.9529 1.4 20.754 -71.3916 156.183
233 15.9972 16.9529 1.4 22.7528 -91.2374 28.5858
234 17.9972 16.9529 1.4 24.7518 -80.8428 -71.3343
235 19.9972 16.9529 1.4 26.751 -76.4448 -179.546
236 21.9972 16.9529 1.4 28.7502 -76.0705 -26.3903
237 23.9972 16.9529 1.4 30.7496 -78.5284 -102.998
238 25.9972 16.9529 1.4 32.749 -83.4358 177.967
239 27.9972 16.9529 1.4 34.7485 -78.1873 102.932
240 29.9972 16.9529 1.4 36.7481 -78.123 173.607
241 -28.0028 18.9529 1.4 21.4372 -81.706 61.2344
242 -26.0028 18.9529 1.4 19.4555 -86.203 -110.458
243 -24.0028 18.9529 1.4 17.4779 -78.229 -65.5755
244 -22.0028 18.9529 1.4 15.5061 -75.248 87.5295
245 -20.0028 18.9529 1.4 13.5425 -59.9488 72.391
246 -18.0028 18.9529 1.4 11.5914 -52.5692 105.784
247 -16.0028 18.9529 1.4 9.66038 -55.9918 79.1104
248 -14.0028 18.9529 1.4 7.7643 -55.2732 -50.1024
249 -12.0028 18.9529 1.4 5.93681 -47.4434 54.1729
250 -10.0028 18.9529 1.4 4.26699 -43.3413 31.5772
251 -8.00282 18.9529 1.4 3.02797 -55.1965 -6.57325
252 -6.00282 18.9529 1.4 2.85133 -48.8653 169.818
253 -4.00282 18.9529 1.4 3.88478 -44.5733 43.2238
254 -2.00282 18.9529 1.4 5.48205 -57.2417 103.819
255 -0.00282 18.9529 1.4 7.2811 -58.6349 109.777
256 1.99718 18.9529 1.4 9.16383 -53.5724 -118.674
257 3.99718 18.9529 1.4 11.0877 -56.7266 -87.9232
258 5.99718 18.9529 1.4 13.0345 -52.4703 174.608
259 7.99718 18.9529 1.4 14.9953 -62.0329 175.793
260 9.99718 18.9529 1.4 16.9653 -63.1202 -11.887
261 11.9972 18.9529 1.4 18.9416 -72.4204 -5.73767
262 13.9972 18.9529 1.4 20.9223 -67.9203 106.247
263 15.9972 18.9529 1.4 22.9065 -73.4118 79.4094
264 17.9972 18.9529 1.4 24.8931 -73.1912 -90.7035
265 19.9972 18.9529 1.4 26.8818 -76.0819 -36.6144
266 21.9972 18.9529 1.4 28.872 -79.3056 -77.9122
267 23.9972 18.9529 1.4 30.8634 -74.9839 -45.6367
268 25.9972 18.9529 1.4 32.8559 -81.0736 150.612
269 27.9972 18.9529 1.4 34.8493 -82.0797 154.337
270 29.9972 18.9529 1.4 36.8434 -78.7109 -93.1389
