#Rx
# X(m), Y(m), Z(m), Distance(m), Power (dBm) Phase (deg)
1 -28.0028 2.95289 1.4 51.4926 -250 0
2 -26.0028 2.95289 1.4 49.6155 -250 0
3 -24.0028 2.95289 1.4 47.7484 -250 0
4 -22.0028 2.95289 1.4 45.8925 -250 0
5 -20.0028 2.95289 1.4 44.0492 -120.67 -129.076
6 -18.0028 2.95289 1.4 42.2201 -113.893 142.489
7 -16.0028 2.95289 1.4 40.4073 -96.7575 27.839
8 -14.0028 2.95289 1.4 38.6129 -88.8491 111.414
9 -12.0028 2.95289 1.4 36.8397 -94.2638 4.75238
10 -10.0028 2.95289 1.4 35.091 -89.2459 35.3604
11 -8.00282 2.95289 1.4 33.3704 -92.3107 56.8074
12 -6.00282 2.95289 1.4 31.6827 -96.4938 -70.9885
13 -4.00282 2.95289 1.4 30.0334 -106.451 157.685
14 -2.00282 2.95289 1.4 28.4291 -95.6654 51.2271
15 -0.00282 2.95289 1.4 26.8779 -97.4558 170.529
16 1.99718 2.95289 1.4 25.3896 -83.1935 -14.5827
17 3.99718 2.95289 1.4 23.9759 -64.9177 13.6317
18 5.99718 2.95289 1.4 22.6507 -66.4043 -58.0472
19 7.99718 2.95289 1.4 21.4304 -71.8264 -53.7977
20 9.99718 2.95289 1.4 20.334 -83.8523 -152.012
21 11.9972 2.95289 1.4 19.3825 -63.9705 -6.01192
22 13.9972 2.95289 1.4 18.5981 -67.7933 141.179
23 15.9972 2.95289 1.4 18.0028 -81.6881 -172.272
24 17.9972 2.95289 1.4 17.6156 -50.3266 104.625
25 19.9972 2.95289 1.4 17.4505 -56.3646 142.868
26 21.9972 2.95289 1.4 17.5137 -64.7839 -159.259
27 23.9972 2.95289 1.4 17.8028 -55.013 142.404
28 25.9972 2.95289 1.4 18.307 -59.762 -162.837
29 27.9972 2.95289 1.4 19.0094 -59.3947 -124.894
30 29.9972 2.95289 1.4 19.8889 -62.52 -114.528
31 -28.0028 4.95289 1.4 50.8499 -250 0
32 -26.0028 4.95289 1.4 48.9481 -250 0
33 -24.0028 4.95289 1.4 47.0545 -250 0
34 -22.0028 4.95289 1.4 45.1701 -250 0
35 -20.0028 4.95289 1.4 43.2961 -143.327 -32.1352
36 -18.0028 4.95289 1.4 41.4338 -127.559 -111.246
37 -16.0028 4.95289 1.4 39.5849 -96.8989 -143.605
38 -14.0028 4.95289 1.4 37.7515 -105.449 117.348
39 -12.0028 4.95289 1.4 35.9359 -85.3418 118.472
40 -10.0028 4.95289 1.4 34.1408 -91.5479 159.361
41 -8.00282 4.95289 1.4 32.3698 -87.6653 150.408
42 -6.00282 4.95289 1.4 30.627 -90.1359 95.3062
43 -4.00282 4.95289 1.4 28.9176 -113.34 19.412
44 -2.00282 4.95289 1.4 27.2477 -96.0644 -54.0402
45 -0.00282 4.95289 1.4 25.6251 -98.7607 -90.3549
46 1.99718 4.95289 1.4 24.0594 -94.5564 79.3774
47 3.99718 4.95289 1.4 22.5624 -62.5849 -165.536
48 5.99718 4.95289 1.4 21.1488 -64.1994 90.3419
49 7.99718 4.95289 1.4 19.8364 -64.8229 10.537
50 9.99718 4.95289 1.4 18.6465 -87.6878 -134.273
51 11.9972 4.95289 1.4 17.604 -62.1446 107.087
52 13.9972 4.95289 1.4 16.7365 -65.9445 -77.7141
53 15.9972 4.95289 1.4 16.0724 -69.7711 78.5269
54 17.9972 4.95289 1.4 15.6375 -53.9305 -65.8993
55 19.9972 4.95289 1.4 15.4512 -54.7435 -44.6995
56 21.9972 4.95289 1.4 15.5226 -60.273 -58.1826
57 23.9972 4.95289 1.4 15.848 -54.7396 160.35
58 25.9972 4.95289 1.4 16.4125 -76.8933 52.6649
59 27.9972 4.95289 1.4 17.1924 -59.9993 -56.3839
60 29.9972 4.95289 1.4 18.1601 -66.3987 173.994
61 -28.0028 6.95289 1.4 50.2785 -250 0
62 -26.0028 6.95289 1.4 48.3543 -250 0
63 -24.0028 6.95289 1.4 46.4365 -250 0
64 -22.0028 6.95289 1.4 44.526 -250 0
65 -20.0028 6.95289 1.4 42.6236 -125.943 -109.714
66 -18.0028 6.95289 1.4 40.7306 -122.827 -106.434
67 -16.0028 6.95289 1.4 38.8483 -117.957 -93.141
68 -14.0028 6.95289 1.4 36.9784 -104.236 -105.926
69 -12.0028 6.95289 1.4 35.1228 -76.3356 154.582
70 -10.0028 6.95289 1.4 33.2839 -89.9407 -131.087
71 -8.00282 6.95289 1.4 31.4647 -92.999 178.92
72 -6.00282 6.95289 1.4 29.6688 -86.5177 -149.614
73 -4.00282 6.95289 1.4 27.9007 -97.7829 156.388
74 -2.00282 6.95289 1.4 26.1659 -84.4477 99.267
75 -0.00282 6.95289 1.4 24.4717 -94.063 -91.1487
76 1.99718 6.95289 1.4 22.8271 -78.7981 -65.9384
77 3.99718 6.95289 1.4 21.2435 -67.1265 105.21
78 5.99718 6.95289 1.4 19.7356 -64.338 -124.7
79 7.99718 6.95289 1.4 18.3222 -64.1289 150.983
80 9.99718 6.95289 1.4 17.0268 -66.3865 3.01898
81 11.9972 6.95289 1.4 15.8784 -66.8163 -158.979
82 13.9972 6.95289 1.4 14.9108 -62.0113 -133.802
83 15.9972 6.95289 1.4 14.1613 -69.6155 -100.525
84 17.9972 6.95289 1.4 13.6657 -58.492 68.8109
85 19.9972 6.95289 1.4 13.4522 -55.793 -171.548
86 21.9972 6.95289 1.4 13.5341 -67.1333 20.1861
87 23.9972 6.95289 1.4 13.9061 -64.2314 -127.643
88 25.9972 6.95289 1.4 14.5461 -57.0699 -139.381
89 27.9972 6.95289 1.4 15.4207 -78.0639 -91.0848
90 29.9972 6.95289 1.4 16.4927 -68.0048 -102.604
91 -28.0028 8.95289 1.4 49.7811 -131.513 -80.4988
92 -26.0028 8.95289 1.4 47.8368 -137.495 149.712
93 -24.0028 8.95289 1.4 45.8974 -250 0
94 -22.0028 8.95289 1.4 43.9634 -250 0
95 -20.0028 8.95289 1.4 42.0356 -250 0
96 -18.0028 8.95289 1.4 40.1148 -250 0
97 -16.0028 8.95289 1.4 38.2022 -117.844 71.9521
98 -14.0028 8.95289 1.4 36.299 -121.566 -149.433
99 -12.0028 8.95289 1.4 34.4068 -94.7008 174.873
100 -10.0028 8.95289 1.4 32.5275 -97.7893 62.4945
101 -8.00282 8.95289 1.4 30.6635 -83.7432 -26.753
102 -6.00282 8.95289 1.4 28.8177 -106.55 -170.759
103 -4.00282 8.95289 1.4 26.9938 -86.0477 -54.2033
104 -2.00282 8.95289 1.4 25.1968 -91.3108 -163.433
105 -0.00282 8.95289 1.4 23.4326 -76.8515 -174.241
106 1.99718 8.95289 1.4 21.7094 -82.7955 121.877
107 3.99718 8.95289 1.4 20.0376 -69.4073 -16.849
108 5.99718 8.95289 1.4 18.4314 -71.1272 82.5948
109 7.99718 8.95289 1.4 16.9093 -65.1837 -36.9254
110 9.99718 8.95289 1.4 15.4963 -67.3526 -101.668
111 11.9972 8.95289 1.4 14.2248 -65.9136 -114.047
112 13.9972 8.95289 1.4 13.136 -58.3521 -82.7428
113 15.9972 8.95289 1.4 12.2786 -65.4614 126.752
114 17.9972 8.95289 1.4 11.7035 -61.248 22.1395
115 19.9972 8.95289 1.4 11.4535 -52.2172 -137.184
116 21.9972 8.95289 1.4 11.5495 -57.938 7.18952
117 23.9972 8.95289 1.4 11.9834 -66.9792 107.603
118 25.9972 8.95289 1.4 12.7205 -66.7953 -149.996
119 27.9972 8.95289 1.4 13.7121 -70.9661 134.126
120 29.9972 8.95289 1.4 14.9074 -74.4799 160.635
121 -28.0028 10.9529 1.4 49.3596 -113.892 152.626
122 -26.0028 10.9529 1.4 47.3981 -122.245 -165.283
123 -24.0028 10.9529 1.4 45.44 -118.492 2.01409
124 -22.0028 10.9529 1.4 43.4857 -105.772 -23.2236
125 -20.0028 10.9529 1.4 41.5357 -103.102 -172.434
126 -18.0028 10.9529 1.4 39.5907 -110.669 160.573
127 -16.0028 10.9529 1.4 37.6514 -111.987 14.4348
128 -14.0028 10.9529 1.4 35.7189 -134.794 -73.2071
129 -12.0028 10.9529 1.4 33.7942 -105.254 24.3361
130 -10.0028 10.9529 1.4 31.8788 -90.8594 80.5977
131 -8.00282 10.9529 1.4 29.9745 -109.159 -6.46029
132 -6.00282 10.9529 1.4 28.0834 -86.0806 -63.4455
133 -4.00282 10.9529 1.4 26.2086 -97.5037 17.6935
134 -2.00282 10.9529 1.4 24.3536 -77.3533 34.914
135 -0.00282 10.9529 1.4 22.5235 -117.976 163.793
136 1.99718 10.9529 1.4 20.7248 -75.939 -118.323
137 3.99718 10.9529 1.4 18.9665 -74.9428 140.827
138 5.99718 10.9529 1.4 17.2608 -65.7676 -89.2912
139 7.99718 10.9529 1.4 15.6252 -70.9847 119.146
140 9.99718 10.9529 1.4 14.0839 -64.6841 24.3998
141 11.9972 10.9529 1.4 12.6714 -64.3692 -111.775
142 13.9972 10.9529 1.4 11.4357 -55.8192 140.535
143 15.9972 10.9529 1.4 10.4395 -59.6491 14.3237
144 17.9972 10.9529 1.4 9.75673 -53.767 116.561
145 19.9972 10.9529 1.4 9.45533 -55.1037 -39.9164
146 21.9972 10.9529 1.4 9.57146 -66.9758 124.08
147 23.9972 10.9529 1.4 10.0907 -64.7367 -173.034
148 25.9972 10.9529 1.4 10.9559 -67.0134 86.166
149 27.9972 10.9529 1.4 12.093 -64.9474 179.316
150 29.9972 10.9529 1.4 13.4332 -65.7072 78.8917
151 -28.0028 12.9529 1.4 49.0163 -111.306 72.3851
152 -26.0028 12.9529 1.4 47.0405 -111.521 101.397
153 -24.0028 12.9529 1.4 45.0668 -95.8663 161.601
154 -22.0028 12.9529 1.4 43.0955 -80.7662 -10.5429
155 -20.0028 12.9529 1.4 41.127 -81.127 -145.091
156 -18.0028 12.9529 1.4 39.1618 -75.6161 -117.058
157 -16.0028 12.9529 1.4 37.2002 -74.4626 142.832
158 -14.0028 12.9529 1.4 35.2429 -89.707 8.77607
159 -12.0028 12.9529 1.4 33.2907 -79.0669 -37.9711
160 -10.0028 12.9529 1.4 31.3446 -73.9895 177.881
161 -8.00282 12.9529 1.4 29.4056 -78.6229 -148.07
162 -6.00282 12.9529 1.4 27.4754 -81.8106 169.427
163 -4.00282 12.9529 1.4 25.556 -78.4128 -167.252
164 -2.00282 12.9529 1.4 23.6499 -69.7896 11.8038
165 -0.00282 12.9529 1.4 21.7607 -71.7539 -46.6853
166 1.99718 12.9529 1.4 19.8932 -68.2926 -0.685937
167 3.99718 12.9529 1.4 18.054 -59.768 -103.322
168 5.99718 12.9529 1.4 16.2529 -65.3574 15.2011
169 7.99718 12.9529 1.4 14.504 -63.6026 153.538
170 9.99718 12.9529 1.4 12.8287 -60.4616 23.3575
171 11.9972 12.9529 1.4 11.2599 -53.1888 20.439
172 13.9972 12.9529 1.4 9.84864 -53.2257 -162.09
173 15.9972 12.9529 1.4 8.6721 -67.0307 67.1615
174 17.9972 12.9529 1.4 7.83676 -51.1931 -159.942
175 19.9972 12.9529 1.4 7.45817 -58.3758 -98.5428
176 21.9972 12.9529 1.4 7.60486 -66.311 27.0716
177 23.9972 12.9529 1.4 8.24885 -70.2589 -102.242
178 25.9972 12.9529 1.4 9.28725 -67.0646 171.355
179 27.9972 12.9529 1.4 10.6048 -79.524 -104.213
180 29.9972 12.9529 1.4 12.1108 -62.7267 73.4386
181 -28.0028 14.9529 1.4 48.7526 -112.333 44.9831
182 -26.0028 14.9529 1.4 46.7656 -126.69 131.769
183 -24.0028 14.9529 1.4 44.7799 -89.1625 106.435
184 -22.0028 14.9529 1.4 42.7954 -79.2088 84.5069
185 -20.0028 14.9529 1.4 40.8124 -99.2687 -80.1947
186 -18.0028 14.9529 1.4 38.8312 -124.834 -151.538
187 -16.0028 14.9529 1.4 36.852 -97.5459 -65.3445
188 -14.0028 14.9529 1.4 34.8752 -125.443 -31.2027
189 -12.0028 14.9529 1.4 32.9013 -102.105 133.23
190 -10.0028 14.9529 1.4 30.9306 -95.957 135.729
191 -8.00282 14.9529 1.4 28.964 -80.5143 -14.5569
192 -6.00282 14.9529 1.4 27.0022 -94.4108 148
193 -4.00282 14.9529 1.4 25.0466 -96.9994 -143.71
194 -2.00282 14.9529 1.4 23.0985 -85.7561 56.5831
195 -0.00282 14.9529 1.4 21.1601 -87.5662 -118.691
196 1.99718 14.9529 1.4 19.2343 -74.4105 92.6304
197 3.99718 14.9529 1.4 17.3254 -56.6 122.953
198 5.99718 14.9529 1.4 15.4395 -58.5459 -80.0214
199 7.99718 14.9529 1.4 13.5863 -66.2814 160.259
200 9.99718 14.9529 1.4 11.7812 -52.5529 45.3774
201 11.9972 14.9529 1.4 10.0502 -62.5702 -96.0175
202 13.9972 14.9529 1.4 8.439 -62.0332 -46.0729
203 15.9972 14.9529 1.4 7.03039 -59.7015 162.863
204 17.9972 14.9529 1.4 5.96958 -57.2653 -34.446
205 19.9972 14.9529 1.4 5.4631 -59.0619 -163.266
206 21.9972 14.9529 1.4 5.66171 -63.2925 84.5636
207 23.9972 14.9529 1.4 6.50112 -57.0334 -25.014
208 25.9972 14.9529 1.4 7.77651 -50.7209 -146.692
209 27.9972 14.9529 1.4 9.31041 -50.1967 -139.929
210 29.9972 14.9529 1.4 10.9951 -63.0269 28.5908
211 -28.0028 16.9529 1.4 48.5699 -120.213 141.416
212 -26.0028 16.9529 1.4 46.5752 -123.122 16.5118
213 -24.0028 16.9529 1.4 44.5809 -88.2939 61.9227
214 -22.0028 16.9529 1.4 42.5872 -90.5081 95.7268
215 -20.0028 16.9529 1.4 40.594 -124.215 -145.657
216 -18.0028 16.9529 1.4 38.6016 -114.422 -58.6384
217 -16.0028 16.9529 1.4 36.61 -126.18 -57.19
218 -14.0028 16.9529 1.4 34.6194 -106.533 80.6198
219 -12.0028 16.9529 1.4 32.63 -104.714 -141.004
220 -10.0028 16.9529 1.4 30.6419 -74.9175 -134.69
221 -8.00282 16.9529 1.4 28.6554 -90.0629 -44.6323
222 -6.00282 16.9529 1.4 26.671 -77.1978 13.1396
223 -4.00282 16.9529 1.4 24.6891 -91.2663 23.764
224 -2.00282 16.9529 1.4 22.7104 -82.6594 -31.3629
225 -0.00282 16.9529 1.4 20.7357 -81.4729 139.389
226 1.99718 16.9529 1.4 18.7665 -96.5429 -12.0317
227 3.99718 16.9529 1.4 16.8045 -61.1128 83.8296
228 5.99718 16.9529 1.4 14.8526 -58.3467 145.897
229 7.99718 16.9529 1.4 12.9155 -63.42 -171.952
230 9.99718 16.9529 1.4 11.0009 -66.3441 64.4011
231 11.9972 16.9529 1.4 9.12296 -55.5103 -28.2466
232 13.9972 16.9529 1.4 7.31012 -49.2668 50.9777
233 15.9972 16.9529 1.4 5.6256 -49.7997 -42.7874
234 17.9972 16.9529 1.4 4.22575 -50.2494 91.5754
235 19.9972 16.9529 1.4 3.47369 -52.4868 100.644
236 21.9972 16.9529 1.4 3.77837 -58.4226 -126.701
237 23.9972 16.9529 1.4 4.9483 -53.3814 -163.723
238 25.9972 16.9529 1.4 6.53415 -48.9306 129.88
239 27.9972 16.9529 1.4 8.30089 -57.5792 -125.872
240 29.9972 16.9529 1.4 10.1545 -56.7591 -54.7884
241 -28.0028 18.9529 1.4 48.4691 -250 0
242 -26.0028 18.9529 1.4 46.4701 -250 0
243 -24.0028 18.9529 1.4 44.4711 -250 0
244 -22.0028 18.9529 1.4 42.4722 -250 0
245 -20.0028 18.9529 1.4 40.4734 -250 0
246 -18.0028 18.9529 1.4 38.4747 -250 0
247 -16.0028 18.9529 1.4 36.4762 -110.801 -76.7962
248 -14.0028 18.9529 1.4 34.4779 -113.916 50.3798
249 -12.0028 18.9529 1.4 32.4798 -99.9549 -130.858
250 -10.0028 18.9529 1.4 30.4819 -76.2927 -68.1413
251 -8.00282 18.9529 1.4 28.4843 -93.9432 7.46366
252 -6.00282 18.9529 1.4 26.487 -84.9053 -32.3769
253 -4.00282 18.9529 1.4 24.4903 -103.26 -18.6917
254 -2.00282 18.9529 1.4 22.4941 -85.0534 -153.968
255 -0.00282 18.9529 1.4 20.4986 -87.9405 23.2567
256 1.99718 18.9529 1.4 18.5041 -77.7406 108.302
257 3.99718 18.9529 1.4 16.5109 -55.3785 0.576859
258 5.99718 18.9529 1.4 14.5197 -59.8801 -117.405
259 7.99718 18.9529 1.4 12.5312 -55.4578 -71.1677
260 9.99718 18.9529 1.4 10.547 -68.6406 171.467
261 11.9972 18.9529 1.4 8.57026 -56.2221 -143.456
262 13.9972 18.9529 1.4 6.60749 -52.9976 147.174
263 15.9972 18.9529 1.4 4.67638 -48.6421 142.264
264 17.9972 18.9529 1.4 2.84219 -57.344 7.94342
265 19.9972 18.9529 1.4 1.51248 -36.4439 -161.08
266 21.9972 18.9529 1.4 2.12065 -41.2289 -129.274
267 23.9972 18.9529 1.4 3.83493 -48.838 172.135
268 25.9972 18.9529 1.4 5.73727 -46.6513 -81.6848
269 27.9972 18.9529 1.4 7.68933 -60.9773 -67.1879
270 29.9972 18.9529 1.4 9.66102 -56.405 82.747
