#Rx
# X(m), Y(m), Z(m), Distance(m), Power (dBm) Phase (deg)
1 -28.0028 2.95289 1.4 35.4418 -137.732 123.194
2 -26.5028 2.95289 1.4 34.0335 -153.389 49.8731
3 -25.0028 2.95289 1.4 32.6335 -144.991 76.9317
4 -23.5028 2.95289 1.4 31.2427 -131.817 -137.038
5 -22.0028 2.95289 1.4 29.8625 -137.088 144.402
6 -20.5028 2.95289 1.4 28.4945 -108.452 -161.632
7 -19.0028 2.95289 1.4 27.1403 -101.961 -151.333
8 -17.5028 2.95289 1.4 25.8024 -94.0885 171.061
9 -16.0028 2.95289 1.4 24.4831 -76.4964 -121.6
10 -14.5028 2.95289 1.4 23.1859 -81.9907 81.7285
11 -13.0028 2.95289 1.4 21.9146 -69.382 -150.82
12 -11.5028 2.95289 1.4 20.674 -67.9206 -44.7229
13 -10.0028 2.95289 1.4 19.4699 -65.5664 -64.8616
14 -8.50282 2.95289 1.4 18.3096 -66.2652 134.626
15 -7.00282 2.95289 1.4 17.2019 -71.3127 -80.7162
16 -5.50282 2.95289 1.4 16.1576 -67.7315 72.6235
17 -4.00282 2.95289 1.4 15.1898 -76.6262 44.3151
18 -2.50282 2.95289 1.4 14.3141 -66.1254 105.354
19 -1.00282 2.95289 1.4 13.5483 -85.8737 102.172
20 0.49718 2.95289 1.4 12.912 -61.6392 -143.65
21 1.99718 2.95289 1.4 12.4251 -59.8634 115.429
22 3.49718 2.95289 1.4 12.1056 -59.5139 -120.094
23 4.99718 2.95289 1.4 11.967 -69.7034 120.972
24 6.49718 2.95289 1.4 12.0155 -54.654 -93.7708
25 7.99718 2.95289 1.4 12.2489 -57.2027 89.7344
26 9.49718 2.95289 1.4 12.657 -59.4822 -122.089
27 10.9972 2.95289 1.4 13.2236 -65.9803 49.5542
28 12.4972 2.95289 1.4 13.9293 -68.2458 -34.4407
29 13.9972 2.95289 1.4 14.7543 -71.6055 -178.032
30 15.4972 2.95289 1.4 15.6797 -72.1084 -4.20258
31 16.9972 2.95289 1.4 16.6888 -78.6277 -137.551
32 18.4972 2.95289 1.4 17.7673 -90.7593 -142.376
33 19.9972 2.95289 1.4 18.9035 -78.4278 30.5956
34 21.4972 2.95289 1.4 20.0874 -75.9856 -144.54
35 22.9972 2.95289 1.4 21.3112 -79.4261 122.843
36 24.4972 2.95289 1.4 22.5684 -78.3705 -175.865
37 25.9972 2.95289 1.4 23.8536 -77.8226 -87.9548
38 27.4972 2.95289 1.4 25.1626 -87.0765 -74.1821
39 28.9972 2.95289 1.4 26.4919 -90.6674 70.6129
40 30.4972 2.95289 1.4 27.8385 -85.7643 86.5585
41 -28.0028 4.45289 1.4 34.964 -127.735 -33.0669
42 -26.5028 4.45289 1.4 33.5358 -128.904 -177.013
43 -25.0028 4.45289 1.4 32.114 -128.792 -124.178
44 -23.5028 4.45289 1.4 30.6997 -139.666 -91.2191
45 -22.0028 4.45289 1.4 29.294 -138.565 138.476
46 -20.5028 4.45289 1.4 27.898 -88.1261 118.6
47 -19.0028 4.45289 1.4 26.5135 -95.7324 60.0807
48 -17.5028 4.45289 1.4 25.1421 -91.1852 114.366
49 -16.0028 4.45289 1.4 23.7863 -82.6674 -124.71
50 -14.5028 4.45289 1.4 22.4489 -71.7037 91.4676
51 -13.0028 4.45289 1.4 21.1333 -73.2168 115.637
52 -11.5028 4.45289 1.4 19.8439 -69.6715 -48.9006
53 -10.0028 4.45289 1.4 18.5861 -69.0983 -38.4773
54 -8.50282 4.45289 1.4 17.3668 -80.4343 22.6418
55 -7.00282 4.45289 1.4 16.1947 -68.3689 -80.0827
56 -5.50282 4.45289 1.4 15.0809 -69.0984 33.9867
57 -4.00282 4.45289 1.4 14.0391 -70.022 -143.611
58 -2.50282 4.45289 1.4 13.0866 -68.3433 123.517
59 -1.00282 4.45289 1.4 12.2443 -70.8856 43.4259
60 0.49718 4.45289 1.4 11.5363 -63.5234 136.196
61 1.99718 4.45289 1.4 10.9886 -65.2017 65.9925
62 3.49718 4.45289 1.4 10.626 -65.3186 173.319
63 4.99718 4.45289 1.4 10.4678 -62.1498 -93.4828
64 6.49718 4.45289 1.4 10.5232 -56.6938 -38.3407
65 7.99718 4.45289 1.4 10.7889 -79.9852 9.65198
66 9.49718 4.45289 1.4 11.2501 -54.0783 -140.407
67 10.9972 4.45289 1.4 11.8839 -64.8452 -119.222
68 12.4972 4.45289 1.4 12.6646 -56.8844 157.711
69 13.9972 4.45289 1.4 13.5667 -67.9489 104.781
70 15.4972 4.45289 1.4 14.5677 -76.7626 -143.638
71 16.9972 4.45289 1.4 15.6487 -83.4231 86.8419
72 18.4972 4.45289 1.4 16.7942 -76.1364 -145.917
73 19.9972 4.45289 1.4 17.9919 -80.3465 -104.131
74 21.4972 4.45289 1.4 19.232 -73.1618 149.968
75 22.9972 4.45289 1.4 20.5069 -74.0677 -39.9455
76 24.4972 4.45289 1.4 21.8105 -70.7576 -28.7
77 25.9972 4.45289 1.4 23.1378 -82.5927 -86.3967
78 27.4972 4.45289 1.4 24.4852 -84.6219 -164.808
79 28.9972 4.45289 1.4 25.8493 -99.6041 -167.649
80 30.4972 4.45289 1.4 27.2277 -81.2862 -69.6444
81 -28.0028 5.95289 1.4 34.5449 -100.649 140.626
82 -26.5028 5.95289 1.4 33.0985 -114.946 95.2943
83 -25.0028 5.95289 1.4 31.6572 -111.834 157.328
84 -23.5028 5.95289 1.4 30.2215 -130.503 48.7812
85 -22.0028 5.95289 1.4 28.7924 -135.918 -105.671
86 -20.5028 5.95289 1.4 27.3709 -86.1288 -143.934
87 -19.0028 5.95289 1.4 25.9582 -85.4308 -50.6321
88 -17.5028 5.95289 1.4 24.5559 -83.4716 -54.7762
89 -16.0028 5.95289 1.4 23.1658 -92.5069 63.8482
90 -14.5028 5.95289 1.4 21.7903 -85.0759 -130.154
91 -13.0028 5.95289 1.4 20.4324 -102.229 -94.5534
92 -11.5028 5.95289 1.4 19.0957 -66.0055 -121.89
93 -10.0028 5.95289 1.4 17.7851 -67.2115 129.562
94 -8.50282 5.95289 1.4 16.5067 -78.1141 -95.949
95 -7.00282 5.95289 1.4 15.2687 -67.577 70.7634
96 -5.50282 5.95289 1.4 14.0818 -66.4942 59.6814
97 -4.00282 5.95289 1.4 12.96 -63.7088 -175.638
98 -2.50282 5.95289 1.4 11.9216 -61.6599 -93.4532
99 -1.00282 5.95289 1.4 10.9903 -67.1487 148.938
100 0.49718 5.95289 1.4 10.1956 -57.9813 -27.5391
101 1.99718 5.95289 1.4 9.57152 -64.4538 -46.7928
102 3.49718 5.95289 1.4 9.15298 -74.561 -148.234
103 4.99718 5.95289 1.4 8.96885 -56.3707 49.8383
104 6.49718 5.95289 1.4 9.03347 -63.9606 141.866
105 7.99718 5.95289 1.4 9.34167 -56.5632 20.7763
106 9.49718 5.95289 1.4 9.87066 -54.5966 -66.9056
107 10.9972 5.95289 1.4 10.5874 -63.5216 141.425
108 12.4972 5.95289 1.4 11.4567 -57.743 100.981
109 13.9972 5.95289 1.4 12.4467 -60.2691 -170.048
110 15.4972 5.95289 1.4 13.5308 -85.3325 -131.044
111 16.9972 5.95289 1.4 14.6883 -94.7586 18.7688
112 18.4972 5.95289 1.4 15.9031 -82.6453 134.129
113 19.9972 5.95289 1.4 17.1631 -76.739 -88.366
114 21.4972 5.95289 1.4 18.459 -82.2059 -125.06
115 22.9972 5.95289 1.4 19.7838 -72.3861 127.211
116 24.4972 5.95289 1.4 21.132 -69.4589 169.201
117 25.9972 5.95289 1.4 22.4995 -86.383 -162.118
118 27.4972 5.95289 1.4 23.8828 -82.7965 84.2363
119 28.9972 5.95289 1.4 25.2795 -90.7596 179.389
120 30.4972 5.95289 1.4 26.6874 -81.2444 70.1416
121 -28.0028 7.45289 1.4 34.1865 -93.0092 -153.022
122 -26.5028 7.45289 1.4 32.7243 -101.262 -32.3611
123 -25.0028 7.45289 1.4 31.2657 -81.1482 40.6085
124 -23.5028 7.45289 1.4 29.8111 -110.406 -94.6116
125 -22.0028 7.45289 1.4 28.3614 -116.861 -179.923
126 -20.5028 7.45289 1.4 26.9171 -84.1046 -80.6968
127 -19.0028 7.45289 1.4 25.4793 -92.2588 103.744
128 -17.5028 7.45289 1.4 24.0491 -94.4817 -152.304
129 -16.0028 7.45289 1.4 22.6279 -82.4232 -76.1875
130 -14.5028 7.45289 1.4 21.2175 -82.894 85.9647
131 -13.0028 7.45289 1.4 19.8204 -83.8965 21.0786
132 -11.5028 7.45289 1.4 18.4394 -72.6741 -23.4431
133 -10.0028 7.45289 1.4 17.0785 -67.11 25.2618
134 -8.50282 7.45289 1.4 15.7428 -73.2277 -103.623
135 -7.00282 7.45289 1.4 14.4395 -69.6928 5.85578
136 -5.50282 7.45289 1.4 13.1781 -71.1382 148.094
137 -4.00282 7.45289 1.4 11.9719 -65.4107 152.117
138 -2.50282 7.45289 1.4 10.8393 -69.473 -119.146
139 -1.00282 7.45289 1.4 9.80576 -62.6221 36.8426
140 0.49718 7.45289 1.4 8.90596 -52.9251 25.7695
141 1.99718 7.45289 1.4 8.18409 -65.1467 -121.497
142 3.49718 7.45289 1.4 7.69042 -75.7839 -104.409
143 4.99718 7.45289 1.4 7.47032 -58.3004 170.443
144 6.49718 7.45289 1.4 7.54778 -58.0405 -39.9537
145 7.99718 7.45289 1.4 7.91405 -53.7004 -85.7908
146 9.49718 7.45289 1.4 8.53202 -54.0848 -5.31807
147 10.9972 7.45289 1.4 9.35193 -62.829 -164.107
148 12.4972 7.45289 1.4 10.3258 -58.1142 -90.4022
149 13.9972 7.45289 1.4 11.4142 -63.6 -28.8567
150 15.4972 7.45289 1.4 12.5876 -75.7235 128.1
151 16.9972 7.45289 1.4 13.8243 -85.389 94.6982
152 18.4972 7.45289 1.4 15.1088 -88.325 177.457
153 19.9972 7.45289 1.4 16.4298 -82.1482 -147.902
154 21.4972 7.45289 1.4 17.7792 -84.9228 -167.293
155 22.9972 7.45289 1.4 19.1511 -69.7684 -18.6817
156 24.4972 7.45289 1.4 20.5409 -80.2455 91.9329
157 25.9972 7.45289 1.4 21.9452 -72.5751 -83.7765
158 27.4972 7.45289 1.4 23.3614 -73.7791 -154.109
159 28.9972 7.45289 1.4 24.7874 -80.0362 -112.527
160 30.4972 7.45289 1.4 26.2218 -86.8976 -158.036
161 -28.0028 8.95289 1.4 33.8907 -81.8058 -132.399
162 -26.5028 8.95289 1.4 32.4152 -86.5821 -93.6226
163 -25.0028 8.95289 1.4 30.942 -87.7463 50.2657
164 -23.5028 8.95289 1.4 29.4715 -96.8006 3.62428
165 -22.0028 8.95289 1.4 28.0042 -111.926 -133.23
166 -20.5028 8.95289 1.4 26.5405 -86.245 -9.54493
167 -19.0028 8.95289 1.4 25.0811 -86.4168 101.227
168 -17.5028 8.95289 1.4 23.6267 -88.5553 102.666
169 -16.0028 8.95289 1.4 22.1785 -82.0827 -165.796
170 -14.5028 8.95289 1.4 20.7376 -81.6614 119.704
171 -13.0028 8.95289 1.4 19.3058 -85.2105 135.385
172 -11.5028 8.95289 1.4 17.8851 -79.7082 -39.0859
173 -10.0028 8.95289 1.4 16.4784 -76.2829 -176.408
174 -8.50282 8.95289 1.4 15.0898 -67.5556 157.126
175 -7.00282 8.95289 1.4 13.7246 -70.2999 -15.9466
176 -5.50282 8.95289 1.4 12.3907 -74.4529 -72.9044
177 -4.00282 8.95289 1.4 11.0992 -68.9694 157.778
178 -2.50282 8.95289 1.4 9.86687 -64.2339 -110.458
179 -1.00282 8.95289 1.4 8.71885 -62.4109 66.1141
180 0.49718 8.95289 1.4 7.69295 -56.5212 59.9073
181 1.99718 8.95289 1.4 6.84432 -62.7147 55.2364
182 3.49718 8.95289 1.4 6.24563 -70.1521 93.3714
183 4.99718 8.95289 1.4 5.97253 -60.1596 -144.384
184 6.49718 8.95289 1.4 6.06913 -65.4072 -101.38
185 7.99718 8.95289 1.4 6.51902 -59.9409 162.18
186 9.49718 8.95289 1.4 7.25677 -57.5197 165.426
187 10.9972 8.95289 1.4 8.20512 -55.5683 36.4312
188 12.4972 8.95289 1.4 9.29985 -71.6352 79.061
189 13.9972 8.95289 1.4 10.4953 -68.296 162.354
190 15.4972 8.95289 1.4 11.7607 -68.4961 -103.635
191 16.9972 8.95289 1.4 13.0758 -77.0056 25.2048
192 18.4972 8.95289 1.4 14.4271 -83.4094 -9.44572
193 19.9972 8.95289 1.4 15.8052 -68.4652 -163.664
194 21.4972 8.95289 1.4 17.2037 -66.8518 104.273
195 22.9972 8.95289 1.4 18.618 -70.9441 -138.453
196 24.4972 8.95289 1.4 20.0448 -73.2578 -39.5428
197 25.9972 8.95289 1.4 21.4815 -79.7048 -109.083
198 27.4972 8.95289 1.4 22.9264 -76.8893 -4.04049
199 28.9972 8.95289 1.4 24.3779 -79.4228 -53.7015
200 30.4972 8.95289 1.4 25.835 -84.156 1.5294
201 -28.0028 10.4529 1.4 33.6593 -76.1111 122.387
202 -26.5028 10.4529 1.4 32.1731 -79.8029 15.967
203 -25.0028 10.4529 1.4 30.6883 -92.7925 45.8148
204 -23.5028 10.4529 1.4 29.2051 -95.9624 63.6632
205 -22.0028 10.4529 1.4 27.7236 -94.128 110.577
206 -20.5028 10.4529 1.4 26.2443 -81.542 144.043
207 -19.0028 10.4529 1.4 24.7674 -84.5737 -107.804
208 -17.5028 10.4529 1.4 23.2935 -87.6928 -10.1155
209 -16.0028 10.4529 1.4 21.8232 -81.0319 -148.269
210 -14.5028 10.4529 1.4 20.3572 -82.0216 165.722
211 -13.0028 10.4529 1.4 18.8965 -79.5917 -148.168
212 -11.5028 10.4529 1.4 17.4425 -86.7965 -53.399
213 -10.0028 10.4529 1.4 15.997 -79.3877 -10.9736
214 -8.50282 10.4529 1.4 14.5625 -78.2663 9.82053
215 -7.00282 10.4529 1.4 13.1427 -67.7008 -74.7331
216 -5.50282 10.4529 1.4 11.7428 -70.5609 108.231
217 -4.00282 10.4529 1.4 10.371 -82.2039 -178.887
218 -2.50282 10.4529 1.4 9.03994 -70.0292 45.3684
219 -1.00282 10.4529 1.4 7.77069 -61.5426 -82.7105
220 0.49718 10.4529 1.4 6.59901 -58.8878 173.607
221 1.99718 10.4529 1.4 5.5866 -53.1584 126.222
222 3.49718 10.4529 1.4 4.83459 -63.4732 -62.899
223 4.99718 10.4529 1.4 4.47622 -54.297 -52.9912
224 6.49718 10.4529 1.4 4.60432 -48.8242 -3.63126
225 7.99718 10.4529 1.4 5.18295 -54.4333 125.941
226 9.49718 10.4529 1.4 6.08491 -51.0041 92.8483
227 10.9972 10.4529 1.4 7.18953 -58.4298 150.881
228 12.4972 10.4529 1.4 8.4174 -73.2734 170.201
229 13.9972 10.4529 1.4 9.72192 -75.9075 -68.6118
230 15.4972 10.4529 1.4 11.0761 -72.7234 -46.0154
231 16.9972 10.4529 1.4 12.4636 -68.5328 61.2903
232 18.4972 10.4529 1.4 13.8746 -68.4691 -68.5499
233 19.9972 10.4529 1.4 15.3026 -65.823 -158.313
234 21.4972 10.4529 1.4 16.7431 -66.2503 -68.3023
235 22.9972 10.4529 1.4 18.1933 -64.1375 -122.217
236 24.4972 10.4529 1.4 19.6509 -76.2291 131.036
237 25.9972 10.4529 1.4 21.1145 -70.3113 -159.506
238 27.4972 10.4529 1.4 22.5828 -76.3719 -19.8885
239 28.9972 10.4529 1.4 24.0551 -79.1937 -27.6917
240 30.4972 10.4529 1.4 25.5306 -79.3477 -122.765
241 -28.0028 11.9529 1.4 33.4934 -93.8918 94.6678
242 -26.5028 11.9529 1.4 31.9996 -88.9189 54.4631
243 -25.0028 11.9529 1.4 30.5064 -85.4623 -22.2447
244 -23.5028 11.9529 1.4 29.0138 -82.4897 -68.7994
245 -22.0028 11.9529 1.4 27.5221 -78.0063 71.6836
246 -20.5028 11.9529 1.4 26.0313 -90.6912 -44.6295
247 -19.0028 11.9529 1.4 24.5416 -73.5548 165.981
248 -17.5028 11.9529 1.4 23.0533 -81.9013 116.668
249 -16.0028 11.9529 1.4 21.5666 -77.2693 17.1875
250 -14.5028 11.9529 1.4 20.0818 -78.855 -24.5985
251 -13.0028 11.9529 1.4 18.5996 -66.0431 -67.9342
252 -11.5028 11.9529 1.4 17.1204 -71.5362 -63.7445
253 -10.0028 11.9529 1.4 15.6451 -70.9629 144.606
254 -8.50282 11.9529 1.4 14.1751 -70.6471 -176.348
255 -7.00282 11.9529 1.4 12.712 -69.936 -68.823
256 -5.50282 11.9529 1.4 11.2587 -64.9282 12.6294
257 -4.00282 11.9529 1.4 9.8195 -65.1168 3.65086
258 -2.50282 11.9529 1.4 8.40154 -61.5366 -18.0553
259 -1.00282 11.9529 1.4 7.01777 -62.6395 -62.8234
260 0.49718 11.9529 1.4 5.69318 -54.077 148.585
261 1.99718 11.9529 1.4 4.48057 -51.6142 -173.938
262 3.49718 11.9529 1.4 3.49839 -49.8108 178.825
263 4.99718 11.9529 1.4 2.98361 -44.5603 -88.9473
264 6.49718 11.9529 1.4 3.17256 -49.2017 -52.7921
265 7.99718 11.9529 1.4 3.9659 -48.1814 -173.034
266 9.49718 11.9529 1.4 5.08838 -53.1134 175.177
267 10.9972 11.9529 1.4 6.36826 -64.9239 -101.678
268 12.4972 11.9529 1.4 7.72774 -65.4803 -25.2903
269 13.9972 11.9529 1.4 9.13133 -60.8718 158.539
270 15.4972 11.9529 1.4 10.5615 -63.8476 161.407
271 16.9972 11.9529 1.4 12.0086 -67.7869 103.991
272 18.4972 11.9529 1.4 13.4674 -63.3044 -15.9562
273 19.9972 11.9529 1.4 14.9343 -71.3465 -10.9771
274 21.4972 11.9529 1.4 16.4072 -66.5434 -112.439
275 22.9972 11.9529 1.4 17.8846 -68.7461 32.9256
276 24.4972 11.9529 1.4 19.3655 -69.6284 101.963
277 25.9972 11.9529 1.4 20.8491 -72.0044 12.3786
278 27.4972 11.9529 1.4 22.335 -77.4359 -60.3653
279 28.9972 11.9529 1.4 23.8225 -79.0661 147.953
280 30.4972 11.9529 1.4 25.3116 -72.4504 121.266
281 -28.0028 13.4529 1.4 33.3943 -87.7324 -89.2986
282 -26.5028 13.4529 1.4 31.8958 -81.9086 53.3068
283 -25.0028 13.4529 1.4 30.3974 -86.4871 -161.337
284 -23.5028 13.4529 1.4 28.8992 -86.1081 9.28939
285 -22.0028 13.4529 1.4 27.4013 -73.1356 113.315
286 -20.5028 13.4529 1.4 25.9035 -72.8487 -19.204
287 -19.0028 13.4529 1.4 24.4061 -72.8839 -51.4131
288 -17.5028 13.4529 1.4 22.9089 -86.3712 79.9191
289 -16.0028 13.4529 1.4 21.4122 -74.1016 -45.7308
290 -14.5028 13.4529 1.4 19.916 -72.9266 132.028
291 -13.0028 13.4529 1.4 18.4203 -71.2526 140.69
292 -11.5028 13.4529 1.4 16.9255 -72.8249 -33.7867
293 -10.0028 13.4529 1.4 15.4316 -62.9431 119.38
294 -8.50282 13.4529 1.4 13.9391 -61.8255 176.614
295 -7.00282 13.4529 1.4 12.4484 -63.9146 -84.6196
296 -5.50282 13.4529 1.4 10.9601 -59.5808 169.718
297 -4.00282 13.4529 1.4 9.47565 -67.8227 -165.093
298 -2.50282 13.4529 1.4 7.99695 -66.1883 -126.728
299 -1.00282 13.4529 1.4 6.52797 -61.2455 -54.6009
300 0.49718 13.4529 1.4 5.07717 -63.8214 -161.189
301 1.99718 13.4529 1.4 3.66618 -58.8476 64.1925
302 3.49718 13.4529 1.4 2.3673 -50.3114 -100.048
303 4.99718 13.4529 1.4 1.50576 -43.8016 -36.0716
304 6.49718 13.4529 1.4 1.85217 -41.0994 -42.5487
305 7.99718 13.4529 1.4 3.01558 -62.2555 -146.346
306 9.49718 13.4529 1.4 4.38828 -60.1332 45.4719
307 10.9972 13.4529 1.4 5.8241 -58.8359 -149.076
308 12.4972 13.4529 1.4 7.28584 -59.6192 78.0246
309 13.9972 13.4529 1.4 8.76051 -59.6374 -110.431
310 15.4972 13.4529 1.4 10.2426 -65.1668 -92.7739
311 16.9972 13.4529 1.4 11.7292 -60.5967 12.6644
312 18.4972 13.4529 1.4 13.2188 -71.3655 36.0354
313 19.9972 13.4529 1.4 14.7105 -68.7665 -121.488
314 21.4972 13.4529 1.4 16.2038 -75.7648 159.697
315 22.9972 13.4529 1.4 17.6982 -67.8223 -43.3621
316 24.4972 13.4529 1.4 19.1935 -68.4251 -145.373
317 25.9972 13.4529 1.4 20.6894 -72.2335 117.809
318 27.4972 13.4529 1.4 22.1859 -72.1138 -26.2228
319 28.9972 13.4529 1.4 23.6829 -80.6517 128.093
320 30.4972 13.4529 1.4 25.1802 -78.8448 85.032
321 -28.0028 14.9529 1.4 33.3623 -83.2731 12.8201
322 -26.5028 14.9529 1.4 31.8623 -90.0398 103.637
323 -25.0028 14.9529 1.4 30.3623 -85.0553 138.665
324 -23.5028 14.9529 1.4 28.8623 -81.5842 112.239
325 -22.0028 14.9529 1.4 27.3623 -79.9619 73.3924
326 -20.5028 14.9529 1.4 25.8623 -84.6654 84.2562
327 -19.0028 14.9529 1.4 24.3623 -85.1171 43.9156
328 -17.5028 14.9529 1.4 22.8623 -90.2744 169.766
329 -16.0028 14.9529 1.4 21.3623 -91.348 60.6515
330 -14.5028 14.9529 1.4 19.8623 -78.9785 -88.1894
331 -13.0028 14.9529 1.4 18.3623 -78.244 17.1069
332 -11.5028 14.9529 1.4 16.8623 -73.1471 123.664
333 -10.0028 14.9529 1.4 15.3623 -73.691 135.427
334 -8.50282 14.9529 1.4 13.8623 -63.9205 47.7415
335 -7.00282 14.9529 1.4 12.3623 -55.8075 148.233
336 -5.50282 14.9529 1.4 10.8623 -55.6119 -133.739
337 -4.00282 14.9529 1.4 9.36234 -55.8493 -57.9741
338 -2.50282 14.9529 1.4 7.86236 -51.228 81.0347
339 -1.00282 14.9529 1.4 6.36238 -43.6656 -121.762
340 0.49718 14.9529 1.4 4.86241 -46.4413 21.2418
341 1.99718 14.9529 1.4 3.36248 -39.1902 60.2251
342 3.49718 14.9529 1.4 1.86266 -38.2256 -90.542
343 4.99718 14.9529 1.4 0.364298 -24.9023 -12.5027
344 6.49718 14.9529 1.4 1.13839 -34.5443 -146.771
345 7.99718 14.9529 1.4 2.63802 -58.9444 -55.017
346 9.49718 14.9529 1.4 4.13792 -42.1351 -45.3233
347 10.9972 14.9529 1.4 5.63787 -45.7454 164.485
348 12.4972 14.9529 1.4 7.13784 -48.6493 53.6138
349 13.9972 14.9529 1.4 8.63782 -57.222 -63.2046
350 15.4972 14.9529 1.4 10.1378 -67.2284 146.481
351 16.9972 14.9529 1.4 11.6378 -59.4067 57.7158
352 18.4972 14.9529 1.4 13.1378 -59.8187 -172.923
353 19.9972 14.9529 1.4 14.6378 -59.7313 123.094
354 21.4972 14.9529 1.4 16.1378 -74.232 -124.36
355 22.9972 14.9529 1.4 17.6378 -76.014 -114.649
356 24.4972 14.9529 1.4 19.1378 -89.9563 73.323
357 25.9972 14.9529 1.4 20.6378 -79.5643 -26.8903
358 27.4972 14.9529 1.4 22.1378 -88.8077 135.828
359 28.9972 14.9529 1.4 23.6378 -91.5878 -2.33596
360 30.4972 14.9529 1.4 25.1378 -90.1617 92.3777
361 -28.0028 16.4529 1.4 33.3977 -78.7788 -71.8712
362 -26.5028 16.4529 1.4 31.8994 -73.4403 -84.3551
363 -25.0028 16.4529 1.4 30.4012 -87.0883 -67.9195
364 -23.5028 16.4529 1.4 28.9032 -81.801 -95.2355
365 -22.0028 16.4529 1.4 27.4055 -78.9457 59.1389
366 -20.5028 16.4529 1.4 25.908 -95.0556 -65.3907
367 -19.0028 16.4529 1.4 24.4108 -89.068 -86.0214
368 -17.5028 16.4529 1.4 22.914 -90.7873 -130.286
369 -16.0028 16.4529 1.4 21.4176 -81.8689 -88.2784
370 -14.5028 16.4529 1.4 19.9218 -116.847 -20.8409
371 -13.0028 16.4529 1.4 18.4266 -71.9828 -42.5725
372 -11.5028 16.4529 1.4 16.9323 -75.846 -40.1966
373 -10.0028 16.4529 1.4 15.4391 -56.4338 -1.37722
374 -8.50282 16.4529 1.4 13.9474 -66.3322 120.057
375 -7.00282 16.4529 1.4 12.4576 -55.8742 -119.963
376 -5.50282 16.4529 1.4 10.9707 -73.9195 -67.1813
377 -4.00282 16.4529 1.4 9.48782 -54.1642 7.17355
378 -2.50282 16.4529 1.4 8.01137 -56.7092 6.66
379 -1.00282 16.4529 1.4 6.54563 -51.8323 -81.1485
380 0.49718 16.4529 1.4 5.09985 -50.4763 17.9115
381 1.99718 16.4529 1.4 3.69752 -47.2373 -126.161
382 3.49718 16.4529 1.4 2.41555 -38.8614 -6.70456
383 4.99718 16.4529 1.4 1.58054 -37.7502 17.2939
384 6.49718 16.4529 1.4 1.91346 -36.6246 120.691
385 7.99718 16.4529 1.4 3.05361 -44.6509 -91.0812
386 9.49718 16.4529 1.4 4.41449 -45.7098 -143.161
387 10.9972 16.4529 1.4 5.84388 -54.2818 89.0389
388 12.4972 16.4529 1.4 7.30166 -47.5726 -61.8356
389 13.9972 16.4529 1.4 8.77368 -51.5654 -112.31
390 15.4972 16.4529 1.4 10.2538 -57.6873 133.983
391 16.9972 16.4529 1.4 11.739 -55.4974 95.857
392 18.4972 16.4529 1.4 13.2275 -58.2612 -101.472
393 19.9972 16.4529 1.4 14.7184 -50.6329 -173.254
394 21.4972 16.4529 1.4 16.2109 -81.3357 -11.4193
395 22.9972 16.4529 1.4 17.7047 -82.5418 -166.565
396 24.4972 16.4529 1.4 19.1995 -101.753 136.139
397 25.9972 16.4529 1.4 20.695 -88.1698 133.302
398 27.4972 16.4529 1.4 22.1911 -85.1939 98.6671
399 28.9972 16.4529 1.4 23.6878 -87.2981 105.433
400 30.4972 16.4529 1.4 25.1848 -101.354 152.907
401 -28.0028 17.9529 1.4 33.5003 -75.7613 72.6109
402 -26.5028 17.9529 1.4 32.0068 -88.6365 -109.733
403 -25.0028 17.9529 1.4 30.5139 -98.8467 -26.673
404 -23.5028 17.9529 1.4 29.0218 -80.9122 134.006
405 -22.0028 17.9529 1.4 27.5304 -90.819 164.694
406 -20.5028 17.9529 1.4 26.0401 -87.6411 74.7263
407 -19.0028 17.9529 1.4 24.551 -85.6589 110.855
408 -17.5028 17.9529 1.4 23.0633 -106.774 -64.895
409 -16.0028 17.9529 1.4 21.5773 -79.2294 -150.59
410 -14.5028 17.9529 1.4 20.0933 -75.0527 -133.551
411 -13.0028 17.9529 1.4 18.612 -66.936 -127.285
412 -11.5028 17.9529 1.4 17.1338 -66.837 53.517
413 -10.0028 17.9529 1.4 15.6599 -65.9182 -152.788
414 -8.50282 17.9529 1.4 14.1914 -56.6395 11.2678
415 -7.00282 17.9529 1.4 12.7302 -59.3471 56.1259
416 -5.50282 17.9529 1.4 11.2792 -59.6433 -75.4156
417 -4.00282 17.9529 1.4 9.84298 -69.4351 -33.0597
418 -2.50282 17.9529 1.4 8.42896 -52.4202 -112.064
419 -1.00282 17.9529 1.4 7.05058 -55.124 12.2584
420 0.49718 17.9529 1.4 5.73357 -56.8561 -100.256
421 1.99718 17.9529 1.4 4.53178 -53.1659 -58.3801
422 3.49718 17.9529 1.4 3.56375 -48.0586 -32.0935
423 4.99718 17.9529 1.4 3.05998 -42.0136 -66.8753
424 6.49718 17.9529 1.4 3.24449 -43.5577 100.494
425 7.99718 17.9529 1.4 4.02367 -62.4631 68.342
426 9.49718 17.9529 1.4 5.13353 -45.1494 37.6495
427 10.9972 17.9529 1.4 6.4044 -52.5753 127.511
428 12.4972 17.9529 1.4 7.75755 -54.3275 27.3329
429 13.9972 17.9529 1.4 9.15657 -55.7207 -136.995
430 15.4972 17.9529 1.4 10.5833 -58.0455 6.93868
431 16.9972 17.9529 1.4 12.0279 -59.2628 -6.84336
432 18.4972 17.9529 1.4 13.4845 -59.1566 -12.834
433 19.9972 17.9529 1.4 14.9498 -62.236 91.3698
434 21.4972 17.9529 1.4 16.4213 -74.0035 133.531
435 22.9972 17.9529 1.4 17.8975 -77.5334 8.91377
436 24.4972 17.9529 1.4 19.3774 -95.7307 -158.575
437 25.9972 17.9529 1.4 20.8602 -96.3039 132.057
438 27.4972 17.9529 1.4 22.3453 -89.2523 -44.6577
439 28.9972 17.9529 1.4 23.8322 -91.2824 -140.915
440 30.4972 17.9529 1.4 25.3207 -131.28 -103.264
441 -28.0028 19.4529 1.4 33.6695 -107.619 47.8501
442 -26.5028 19.4529 1.4 32.1839 -97.0371 19.2172
443 -25.0028 19.4529 1.4 30.6996 -101.213 13.0355
444 -23.5028 19.4529 1.4 29.2169 -95.8885 -162.622
445 -22.0028 19.4529 1.4 27.7361 -85.3434 -70.4411
446 -20.5028 19.4529 1.4 26.2575 -91.8447 22.4321
447 -19.0028 19.4529 1.4 24.7814 -92.785 93.1028
448 -17.5028 19.4529 1.4 23.3084 -97.4722 127.529
449 -16.0028 19.4529 1.4 21.839 -84.4314 -33.7952
450 -14.5028 19.4529 1.4 20.3742 -73.921 -82.0879
451 -13.0028 19.4529 1.4 18.9148 -66.8071 54.0352
452 -11.5028 19.4529 1.4 17.4623 -67.3472 94.4112
453 -10.0028 19.4529 1.4 16.0186 -56.5514 -58.7265
454 -8.50282 19.4529 1.4 14.5863 -56.9044 -74.2571
455 -7.00282 19.4529 1.4 13.169 -54.9011 -5.61567
456 -5.50282 19.4529 1.4 11.7723 -70.173 -40.5421
457 -4.00282 19.4529 1.4 10.4043 -53.1647 -177.567
458 -2.50282 19.4529 1.4 9.07815 -53.2155 -137.098
459 -1.00282 19.4529 1.4 7.81512 -50.484 -143.107
460 0.49718 19.4529 1.4 6.65126 -46.981 128.59
461 1.99718 19.4529 1.4 5.64823 -53.3168 -60.3607
462 3.49718 19.4529 1.4 4.90568 -47.901 -18.8686
463 4.99718 19.4529 1.4 4.5529 -52.2882 -139.077
464 6.49718 19.4529 1.4 4.6789 -42.5475 -148.955
465 7.99718 19.4529 1.4 5.24932 -56.916 165.577
466 9.49718 19.4529 1.4 6.14154 -52.9736 -139.506
467 10.9972 19.4529 1.4 7.23753 -51.8783 -93.2654
468 12.4972 19.4529 1.4 8.45843 -53.1183 174.335
469 13.9972 19.4529 1.4 9.75747 -59.0543 37.5307
470 15.4972 19.4529 1.4 11.1073 -58.431 117.162
471 16.9972 19.4529 1.4 12.4914 -50.4504 69.9839
472 18.4972 19.4529 1.4 13.8996 -72.3531 97.0432
473 19.9972 19.4529 1.4 15.3252 -68.0033 -131.048
474 21.4972 19.4529 1.4 16.7638 -71.1909 101.275
475 22.9972 19.4529 1.4 18.2123 -73.8319 105.362
476 24.4972 19.4529 1.4 19.6685 -96.6014 -16.1407
477 25.9972 19.4529 1.4 21.1309 -91.6864 -168.963
478 27.4972 19.4529 1.4 22.5982 -101.591 69.918
479 28.9972 19.4529 1.4 24.0695 -100.361 146.618
480 30.4972 19.4529 1.4 25.5441 -106.756 -150.959
