#Rx
# X(m), Y(m), Z(m), Distance(m), Power (dBm) Phase (deg)
1 -28.0028 2.95289 1.4 51.4926 -250 0
2 -26.5028 2.95289 1.4 50.0839 -250 0
3 -25.0028 2.95289 1.4 48.6806 -250 0
4 -23.5028 2.95289 1.4 47.2833 -250 0
5 -22.0028 2.95289 1.4 45.8925 -250 0
6 -20.5028 2.95289 1.4 44.5087 -120.916 31.9076
7 -19.0028 2.95289 1.4 43.1327 -108.704 -149.384
8 -17.5028 2.95289 1.4 41.7653 -113.845 -98.7956
9 -16.0028 2.95289 1.4 40.4073 -96.7575 27.839
10 -14.5028 2.95289 1.4 39.0596 -95.4566 99.8351
11 -13.0028 2.95289 1.4 37.7235 -90.577 29.8799
12 -11.5028 2.95289 1.4 36.4001 -94.6729 -168.17
13 -10.0028 2.95289 1.4 35.091 -89.2459 35.3604
14 -8.50282 2.95289 1.4 33.7977 -90.8264 -118.741
15 -7.00282 2.95289 1.4 32.5221 -91.285 -101.621
16 -5.50282 2.95289 1.4 31.2666 -100.726 125.948
17 -4.00282 2.95289 1.4 30.0334 -106.451 157.685
18 -2.50282 2.95289 1.4 28.8255 -93.3848 75.0773
19 -1.00282 2.95289 1.4 27.6463 -92.0495 62.189
20 0.49718 2.95289 1.4 26.4995 -92.0453 136.68
21 1.99718 2.95289 1.4 25.3896 -83.1935 -14.5827
22 3.49718 2.95289 1.4 24.3216 -85.652 -130.632
23 4.99718 2.95289 1.4 23.3012 -71.2975 -107.921
24 6.49718 2.95289 1.4 22.3351 -66.7695 -150.14
25 7.99718 2.95289 1.4 21.4304 -71.8264 -53.7977
26 9.49718 2.95289 1.4 20.5954 -74.062 -91.4189
27 10.9972 2.95289 1.4 19.8387 -64.7333 -7.46916
28 12.4972 2.95289 1.4 19.1698 -64.516 -152.469
29 13.9972 2.95289 1.4 18.5981 -67.7933 141.179
30 15.4972 2.95289 1.4 18.1328 -72.7465 167.978
31 16.9972 2.95289 1.4 17.7821 -73.506 -100.276
32 18.4972 2.95289 1.4 17.5531 -52.1452 19.2364
33 19.9972 2.95289 1.4 17.4505 -56.3646 142.868
34 21.4972 2.95289 1.4 17.4764 -56.0546 77.157
35 22.9972 2.95289 1.4 17.6305 -66.0982 -27.4607
36 24.4972 2.95289 1.4 17.9092 -57.8453 153.99
37 25.9972 2.95289 1.4 18.307 -59.762 -162.837
38 27.4972 2.95289 1.4 18.8163 -67.1374 -99.3467
39 28.9972 2.95289 1.4 19.4284 -67.8566 87.3472
40 30.4972 2.95289 1.4 20.1338 -62.2744 -60.5177
41 -28.0028 4.45289 1.4 51.004 -250 0
42 -26.5028 4.45289 1.4 49.5814 -250 0
43 -25.0028 4.45289 1.4 48.1635 -250 0
44 -23.5028 4.45289 1.4 46.7507 -250 0
45 -22.0028 4.45289 1.4 45.3435 -250 0
46 -20.5028 4.45289 1.4 43.9425 -122.011 152.162
47 -19.0028 4.45289 1.4 42.5482 -127.337 -135.928
48 -17.5028 4.45289 1.4 41.1613 -116.712 -153.856
49 -16.0028 4.45289 1.4 39.7827 -114.305 178.451
50 -14.5028 4.45289 1.4 38.4131 -99.3416 177.048
51 -13.0028 4.45289 1.4 37.0537 -92.2365 -75.797
52 -11.5028 4.45289 1.4 35.7055 -86.8658 -60.6006
53 -10.0028 4.45289 1.4 34.3699 -90.3844 159.466
54 -8.50282 4.45289 1.4 33.0484 -89.1835 -114.717
55 -7.00282 4.45289 1.4 31.7428 -89.5681 78.3763
56 -5.50282 4.45289 1.4 30.4551 -101.005 -0.708603
57 -4.00282 4.45289 1.4 29.1877 -101.245 88.5252
58 -2.50282 4.45289 1.4 27.9433 -93.3207 166.123
59 -1.00282 4.45289 1.4 26.7252 -102.223 88.9993
60 0.49718 4.45289 1.4 25.5371 -85.6039 33.0251
61 1.99718 4.45289 1.4 24.3834 -83.476 -177.044
62 3.49718 4.45289 1.4 23.2692 -91.4037 -142.218
63 4.99718 4.45289 1.4 22.2005 -65.4186 -161.746
64 6.49718 4.45289 1.4 21.1842 -72.4484 8.93535
65 7.99718 4.45289 1.4 20.2281 -68.1932 -56.2645
66 9.49718 4.45289 1.4 19.3413 -75.7304 -17.7124
67 10.9972 4.45289 1.4 18.5335 -65.49 -126.538
68 12.4972 4.45289 1.4 17.8157 -63.8901 -165.976
69 13.9972 4.45289 1.4 17.199 -70.3546 -45.1359
70 15.4972 4.45289 1.4 16.6947 -70.2431 -73.7553
71 16.9972 4.45289 1.4 16.3132 -66.7243 68.291
72 18.4972 4.45289 1.4 16.0632 -53.2356 11.6508
73 19.9972 4.45289 1.4 15.951 -64.3681 49.0448
74 21.4972 4.45289 1.4 15.9794 -62.6419 173.356
75 22.9972 4.45289 1.4 16.1477 -61.9517 23.9337
76 24.4972 4.45289 1.4 16.4516 -51.1616 -41.3935
77 25.9972 4.45289 1.4 16.8838 -62.8561 106.916
78 27.4972 4.45289 1.4 17.4348 -62.9238 -139.309
79 28.9972 4.45289 1.4 18.0936 -66.7011 140.881
80 30.4972 4.45289 1.4 18.849 -69.4926 -109.302
81 -28.0028 5.95289 1.4 50.5551 -250 0
82 -26.5028 5.95289 1.4 49.1195 -250 0
83 -25.0028 5.95289 1.4 47.6879 -250 0
84 -23.5028 5.95289 1.4 46.2606 -250 0
85 -22.0028 5.95289 1.4 44.838 -250 0
86 -20.5028 5.95289 1.4 43.4207 -128.39 -131.634
87 -19.0028 5.95289 1.4 42.0091 -121.161 135.554
88 -17.5028 5.95289 1.4 40.6038 -123.476 -35.8143
89 -16.0028 5.95289 1.4 39.2056 -102.042 142.912
90 -14.5028 5.95289 1.4 37.8152 -107.441 -133.578
91 -13.0028 5.95289 1.4 36.4334 -87.8014 -55.4361
92 -11.5028 5.95289 1.4 35.0614 -85.8785 37.8759
93 -10.0028 5.95289 1.4 33.7003 -87.7048 -9.17793
94 -8.50282 5.95289 1.4 32.3514 -103.009 -94.6792
95 -7.00282 5.95289 1.4 31.0165 -84.7106 -25.2117
96 -5.50282 5.95289 1.4 29.6973 -88.6459 115.98
97 -4.00282 5.95289 1.4 28.3961 -123.085 -18.4535
98 -2.50282 5.95289 1.4 27.1154 -82.8469 -82.1555
99 -1.00282 5.95289 1.4 25.8583 -91.5813 147.94
100 0.49718 5.95289 1.4 24.6284 -94.0367 141.268
101 1.99718 5.95289 1.4 23.43 -103.643 9.58373
102 3.49718 5.95289 1.4 22.2682 -88.8298 132.235
103 4.99718 5.95289 1.4 21.149 -65.3292 27.5175
104 6.49718 5.95289 1.4 20.0795 -61.5676 -18.6478
105 7.99718 5.95289 1.4 19.0681 -66.7826 65.8364
106 9.49718 5.95289 1.4 18.1246 -67.8458 5.47145
107 10.9972 5.95289 1.4 17.26 -57.0364 -69.1298
108 12.4972 5.95289 1.4 16.4868 -67.6983 -5.62178
109 13.9972 5.95289 1.4 15.8184 -73.3377 160.639
110 15.4972 5.95289 1.4 15.2686 -78.0511 -45.287
111 16.9972 5.95289 1.4 14.8505 -62.5142 -153.597
112 18.4972 5.95289 1.4 14.5754 -53.7551 35.5711
113 19.9972 5.95289 1.4 14.4517 -61.4289 15.4592
114 21.4972 5.95289 1.4 14.483 -56.9637 -75.7659
115 22.9972 5.95289 1.4 14.6685 -62.3607 -56.2497
116 24.4972 5.95289 1.4 15.0024 -61.0391 111.343
117 25.9972 5.95289 1.4 15.4751 -63.8735 138.746
118 27.4972 5.95289 1.4 16.0744 -60.3082 -102.852
119 28.9972 5.95289 1.4 16.7867 -66.2146 27.5098
120 30.4972 5.95289 1.4 17.5983 -72.4066 -153.949
121 -28.0028 7.45289 1.4 50.1472 -250 0
122 -26.5028 7.45289 1.4 48.6995 -250 0
123 -25.0028 7.45289 1.4 47.2552 -250 0
124 -23.5028 7.45289 1.4 45.8144 -250 0
125 -22.0028 7.45289 1.4 44.3775 -250 0
126 -20.5028 7.45289 1.4 42.945 -157.978 -178.46
127 -19.0028 7.45289 1.4 41.5172 -135.712 -123.414
128 -17.5028 7.45289 1.4 40.0947 -122.998 -105.646
129 -16.0028 7.45289 1.4 38.6781 -111.145 12.5383
130 -14.5028 7.45289 1.4 37.268 -95.8569 -36.4807
131 -13.0028 7.45289 1.4 35.8651 -90.4661 -110.764
132 -11.5028 7.45289 1.4 34.4705 -82.3628 49.3846
133 -10.0028 7.45289 1.4 33.0851 -77.1589 140.204
134 -8.50282 7.45289 1.4 31.7101 -89.1466 145.437
135 -7.00282 7.45289 1.4 30.347 -93.2975 87.3974
136 -5.50282 7.45289 1.4 28.9973 -85.9074 157.171
137 -4.00282 7.45289 1.4 27.6632 -104.506 21.2284
138 -2.50282 7.45289 1.4 26.3469 -88.1042 -119.479
139 -1.00282 7.45289 1.4 25.0513 -82.2812 67.3239
140 0.49718 7.45289 1.4 23.7797 -84.7822 -28.16
141 1.99718 7.45289 1.4 22.5362 -82.4345 -31.7924
142 3.49718 7.45289 1.4 21.3257 -94.0656 -151.845
143 4.99718 7.45289 1.4 20.1543 -66.8016 107.303
144 6.49718 7.45289 1.4 19.029 -63.7867 157.988
145 7.99718 7.45289 1.4 17.9585 -62.7144 135.428
146 9.49718 7.45289 1.4 16.9534 -61.9502 -159.41
147 10.9972 7.45289 1.4 16.0257 -71.4606 26.1643
148 12.4972 7.45289 1.4 15.1898 -66.3941 -98.7879
149 13.9972 7.45289 1.4 14.4616 -64.9847 -6.22204
150 15.4972 7.45289 1.4 13.858 -88.7927 -100.742
151 16.9972 7.45289 1.4 13.396 -56.1785 168.115
152 18.4972 7.45289 1.4 13.0904 -51.2161 -151.347
153 19.9972 7.45289 1.4 12.9525 -54.1313 -176.236
154 21.4972 7.45289 1.4 12.9874 -59.017 140.393
155 22.9972 7.45289 1.4 13.194 -59.0004 76.8338
156 24.4972 7.45289 1.4 13.5642 -57.6458 107.86
157 25.9972 7.45289 1.4 14.0853 -53.678 -114.064
158 27.4972 7.45289 1.4 14.7412 -70.3741 -173.676
159 28.9972 7.45289 1.4 15.5148 -66.7861 -83.0581
160 30.4972 7.45289 1.4 16.3895 -77.8379 115.47
161 -28.0028 8.95289 1.4 49.7811 -131.513 -80.4988
162 -26.5028 8.95289 1.4 48.3225 -129.871 70.2957
163 -25.0028 8.95289 1.4 46.8665 -132.703 -173.229
164 -23.5028 8.95289 1.4 45.4134 -250 0
165 -22.0028 8.95289 1.4 43.9634 -250 0
166 -20.5028 8.95289 1.4 42.5169 -250 0
167 -19.0028 8.95289 1.4 41.0743 -250 0
168 -17.5028 8.95289 1.4 39.6359 -135.316 88.8683
169 -16.0028 8.95289 1.4 38.2022 -117.844 71.9521
170 -14.5028 8.95289 1.4 36.7739 -131.288 41.545
171 -13.0028 8.95289 1.4 35.3514 -104.431 -101.128
172 -11.5028 8.95289 1.4 33.9357 -95.9976 -158.304
173 -10.0028 8.95289 1.4 32.5275 -97.7893 62.4945
174 -8.50282 8.95289 1.4 31.1279 -81.6552 -103.558
175 -7.00282 8.95289 1.4 29.7381 -86.0343 -104.141
176 -5.50282 8.95289 1.4 28.3595 -92.9122 -152.471
177 -4.00282 8.95289 1.4 26.9938 -86.0477 -54.2033
178 -2.50282 8.95289 1.4 25.6432 -87.2492 45.5118
179 -1.00282 8.95289 1.4 24.3101 -95.7948 -88.7716
180 0.49718 8.95289 1.4 22.9976 -77.1241 147.562
181 1.99718 8.95289 1.4 21.7094 -82.7955 121.877
182 3.49718 8.95289 1.4 20.45 -77.4896 127.6
183 4.99718 8.95289 1.4 19.2253 -67.3121 -80.8005
184 6.49718 8.95289 1.4 18.0421 -66.0926 -161.383
185 7.99718 8.95289 1.4 16.9093 -65.1837 -36.9254
186 9.49718 8.95289 1.4 15.8377 -61.0094 -100.128
187 10.9972 8.95289 1.4 14.8405 -60.8699 -84.3483
188 12.4972 8.95289 1.4 13.9336 -63.0122 72.2547
189 13.9972 8.95289 1.4 13.136 -58.3521 -82.7428
190 15.4972 8.95289 1.4 12.4684 -66.0947 161.63
191 16.9972 8.95289 1.4 11.9527 -55.9041 148.928
192 18.4972 8.95289 1.4 11.6093 -63.9694 -108.153
193 19.9972 8.95289 1.4 11.4535 -52.2172 -137.184
194 21.4972 8.95289 1.4 11.493 -52.2932 98.9082
195 22.9972 8.95289 1.4 11.7259 -58.8703 -143.792
196 24.4972 8.95289 1.4 12.141 -56.0876 -146.818
197 25.9972 8.95289 1.4 12.7205 -66.7953 -149.996
198 27.4972 8.95289 1.4 13.4431 -65.2541 -73.2018
199 28.9972 8.95289 1.4 14.2872 -57.194 114.273
200 30.4972 8.95289 1.4 15.2326 -66.9311 88.7316
201 -28.0028 10.4529 1.4 49.4577 -117.306 162.077
202 -26.5028 10.4529 1.4 47.9893 -112.112 -49.5443
203 -25.0028 10.4529 1.4 46.5229 -122.641 -52.4008
204 -23.5028 10.4529 1.4 45.0587 -122.826 -98.9981
205 -22.0028 10.4529 1.4 43.597 -105.364 -1.15003
206 -20.5028 10.4529 1.4 42.1379 -101.088 163.573
207 -19.0028 10.4529 1.4 40.6818 -108.76 114.723
208 -17.5028 10.4529 1.4 39.2291 -151.132 -171.133
209 -16.0028 10.4529 1.4 37.78 -108.307 -45.9055
210 -14.5028 10.4529 1.4 36.335 -127.013 -4.63569
211 -13.0028 10.4529 1.4 34.8947 -97.1297 8.07269
212 -11.5028 10.4529 1.4 33.4596 -101.056 64.9814
213 -10.0028 10.4529 1.4 32.0305 -98.6647 18.269
214 -8.50282 10.4529 1.4 30.6082 -127.6 5.10351
215 -7.00282 10.4529 1.4 29.1936 -87.8871 146.457
216 -5.50282 10.4529 1.4 27.7881 -81.4823 31.1889
217 -4.00282 10.4529 1.4 26.3929 -93.9425 -40.4579
218 -2.50282 10.4529 1.4 25.0098 -80.8498 126.994
219 -1.00282 10.4529 1.4 23.641 -78.735 93.2612
220 0.49718 10.4529 1.4 22.2891 -75.9788 -54.334
221 1.99718 10.4529 1.4 20.9574 -76.4295 -68.7219
222 3.49718 10.4529 1.4 19.6499 -84.0883 -124.106
223 4.99718 10.4529 1.4 18.3719 -67.9838 -177.244
224 6.49718 10.4529 1.4 17.1299 -70.3728 -45.6739
225 7.99718 10.4529 1.4 15.9324 -71.3982 -7.95277
226 9.49718 10.4529 1.4 14.7901 -69.7865 85.5834
227 10.9972 10.4529 1.4 13.717 -59.2457 36.2721
228 12.4972 10.4529 1.4 12.7304 -58.9438 78.3853
229 13.9972 10.4529 1.4 11.852 -51.3832 -15.3066
230 15.4972 10.4529 1.4 11.1075 -63.6853 -52.8229
231 16.9972 10.4529 1.4 10.5254 -51.7197 170.942
232 18.4972 10.4529 1.4 10.1336 -51.7448 74.8369
233 19.9972 10.4529 1.4 9.9548 -49.8727 10.6374
234 21.4972 10.4529 1.4 10.0003 -56.9055 -118.336
235 22.9972 10.4529 1.4 10.2671 -56.7264 11.2816
236 24.4972 10.4529 1.4 10.7387 -57.2752 -143.976
237 25.9972 10.4529 1.4 11.3898 -61.7793 -76.1038
238 27.4972 10.4529 1.4 12.1915 -61.1734 -153.265
239 28.9972 10.4529 1.4 13.1164 -67.7512 -161.408
240 30.4972 10.4529 1.4 14.1403 -66.7841 -97.6705
241 -28.0028 11.9529 1.4 49.1781 -106.338 -106.624
242 -26.5028 11.9529 1.4 47.7011 -103.204 -96.1252
243 -25.0028 11.9529 1.4 46.2255 -97.4237 -137.152
244 -23.5028 11.9529 1.4 44.7516 -85.4913 -77.4303
245 -22.0028 11.9529 1.4 43.2795 -84.3632 117.431
246 -20.5028 11.9529 1.4 41.8093 -89.9871 138.753
247 -19.0028 11.9529 1.4 40.3414 -82.0504 52.721
248 -17.5028 11.9529 1.4 38.8759 -80.8864 -177.481
249 -16.0028 11.9529 1.4 37.4131 -71.2859 -35.6723
250 -14.5028 11.9529 1.4 35.9534 -70.6982 53.2272
251 -13.0028 11.9529 1.4 34.4972 -73.217 177.03
252 -11.5028 11.9529 1.4 33.0449 -75.2227 -106.192
253 -10.0028 11.9529 1.4 31.597 -81.3226 77.4045
254 -8.50282 11.9529 1.4 30.1542 -84.7954 -19.895
255 -7.00282 11.9529 1.4 28.7173 -77.851 -132.978
256 -5.50282 11.9529 1.4 27.2872 -74.4493 149.006
257 -4.00282 11.9529 1.4 25.865 -66.2942 -97.3142
258 -2.50282 11.9529 1.4 24.4521 -69.9287 30.7151
259 -1.00282 11.9529 1.4 23.0502 -64.7962 121.248
260 0.49718 11.9529 1.4 21.6615 -74.2803 78.8713
261 1.99718 11.9529 1.4 20.2886 -75.0211 0.0323874
262 3.49718 11.9529 1.4 18.935 -64.2714 -51.586
263 4.99718 11.9529 1.4 17.6052 -67.6285 27.0674
264 6.49718 11.9529 1.4 16.3049 -65.2911 170.323
265 7.99718 11.9529 1.4 15.0418 -63.0496 -60.1608
266 9.49718 11.9529 1.4 13.8262 -61.8858 -6.26438
267 10.9972 11.9529 1.4 12.6717 -65.5214 39.7944
268 12.4972 11.9529 1.4 11.5965 -55.1074 47.6467
269 13.9972 11.9529 1.4 10.6247 -57.4082 43.9171
270 15.4972 11.9529 1.4 9.78736 -63.7475 32.7184
271 16.9972 11.9529 1.4 9.12138 -49.6565 27.0679
272 18.4972 11.9529 1.4 8.66641 -56.7323 48.4646
273 19.9972 11.9529 1.4 8.45658 -60.0923 133.222
274 21.4972 11.9529 1.4 8.51005 -61.255 -156.015
275 22.9972 11.9529 1.4 8.82203 -67.2339 36.4147
276 24.4972 11.9529 1.4 9.36671 -73.1701 91.4738
277 25.9972 11.9529 1.4 10.1066 -61.6851 61.0952
278 27.4972 11.9529 1.4 11.0023 -65.0924 -163.15
279 28.9972 11.9529 1.4 12.019 -68.9644 -73.8198
280 30.4972 11.9529 1.4 13.1287 -62.0826 1.92479
281 -28.0028 13.4529 1.4 48.9428 -111.39 38.0993
282 -26.5028 13.4529 1.4 47.4585 -118.807 151.201
283 -25.0028 13.4529 1.4 45.9752 -103.897 179.236
284 -23.5028 13.4529 1.4 44.4929 -84.9923 94.811
285 -22.0028 13.4529 1.4 43.012 -85.6533 2.13565
286 -20.5028 13.4529 1.4 41.5324 -74.0975 98.8083
287 -19.0028 13.4529 1.4 40.0543 -76.0247 -178.709
288 -17.5028 13.4529 1.4 38.5779 -76.0961 -64.6668
289 -16.0028 13.4529 1.4 37.1033 -95.7479 -61.7298
290 -14.5028 13.4529 1.4 35.631 -78.3214 -124.914
291 -13.0028 13.4529 1.4 34.161 -76.2578 43.5926
292 -11.5028 13.4529 1.4 32.6937 -85.409 118.68
293 -10.0028 13.4529 1.4 31.2296 -72.3567 -120.138
294 -8.50282 13.4529 1.4 29.769 -79.3338 -51.1245
295 -7.00282 13.4529 1.4 28.3126 -87.1616 102.077
296 -5.50282 13.4529 1.4 26.8609 -69.5142 -164.633
297 -4.00282 13.4529 1.4 25.4149 -77.121 -48.9092
298 -2.50282 13.4529 1.4 23.9754 -72.2784 -83.0854
299 -1.00282 13.4529 1.4 22.5439 -79.9894 113.09
300 0.49718 13.4529 1.4 21.1219 -66.5293 -178.608
301 1.99718 13.4529 1.4 19.7115 -70.3061 -79.8472
302 3.49718 13.4529 1.4 18.3153 -60.9798 45.4838
303 4.99718 13.4529 1.4 16.9369 -66.7454 48.4242
304 6.49718 13.4529 1.4 15.5809 -70.4644 167.157
305 7.99718 13.4529 1.4 14.2539 -63.1774 -72.6248
306 9.49718 13.4529 1.4 12.9645 -61.8168 -160.022
307 10.9972 13.4529 1.4 11.7255 -63.0303 42.2174
308 12.4972 13.4529 1.4 10.5543 -55.8786 -76.1992
309 13.9972 13.4529 1.4 9.47634 -66.6124 143.771
310 15.4972 13.4529 1.4 8.52691 -56.0346 151.363
311 16.9972 13.4529 1.4 7.75341 -66.1704 -146.205
312 18.4972 13.4529 1.4 7.21266 -52.3186 -110.204
313 19.9972 13.4529 1.4 6.95914 -55.0787 -0.383327
314 21.4972 13.4529 1.4 7.02402 -55.7471 -127.718
315 22.9972 13.4529 1.4 7.39892 -60.1929 -115.832
316 24.4972 13.4529 1.4 8.04059 -72.7683 64.6791
317 25.9972 13.4529 1.4 8.89147 -63.0939 -78.2653
318 27.4972 13.4529 1.4 9.89775 -61.334 88.0572
319 28.9972 13.4529 1.4 11.0169 -58.3797 101.902
320 30.4972 13.4529 1.4 12.218 -70.6445 -109.978
321 -28.0028 14.9529 1.4 48.7526 -112.333 44.9831
322 -26.5028 14.9529 1.4 47.2623 -119.478 -83.3901
323 -25.0028 14.9529 1.4 45.7726 -103.177 157.505
324 -23.5028 14.9529 1.4 44.2836 -89.8315 -23.3595
325 -22.0028 14.9529 1.4 42.7954 -79.2088 84.5069
326 -20.5028 14.9529 1.4 41.308 -101.375 36.1729
327 -19.0028 14.9529 1.4 39.8216 -101.817 117.726
328 -17.5028 14.9529 1.4 38.3362 -117.062 -151.29
329 -16.0028 14.9529 1.4 36.852 -97.5459 -65.3445
330 -14.5028 14.9529 1.4 35.3692 -129.036 -19.2069
331 -13.0028 14.9529 1.4 33.8879 -100.213 65.2595
332 -11.5028 14.9529 1.4 32.4083 -108.754 -44.9137
333 -10.0028 14.9529 1.4 30.9306 -95.957 135.729
334 -8.50282 14.9529 1.4 29.4552 -86.5848 23.6924
335 -7.00282 14.9529 1.4 27.9824 -85.2929 104.215
336 -5.50282 14.9529 1.4 26.5127 -70.4341 65.3531
337 -4.00282 14.9529 1.4 25.0466 -96.9994 -143.71
338 -2.50282 14.9529 1.4 23.5847 -84.979 104.656
339 -1.00282 14.9529 1.4 22.1279 -91.0603 -137.854
340 0.49718 14.9529 1.4 20.6773 -73.4792 28.0962
341 1.99718 14.9529 1.4 19.2343 -74.4105 92.6304
342 3.49718 14.9529 1.4 17.8007 -65.1599 174.296
343 4.99718 14.9529 1.4 16.3791 -63.1597 27.4037
344 6.49718 14.9529 1.4 14.9727 -56.5348 -112.555
345 7.99718 14.9529 1.4 13.5863 -66.2814 160.259
346 9.49718 14.9529 1.4 12.2268 -53.8982 -116.668
347 10.9972 14.9529 1.4 10.9042 -58.2567 88.786
348 12.4972 14.9529 1.4 9.63378 -55.7871 24.6063
349 13.9972 14.9529 1.4 8.439 -62.0332 -46.0729
350 15.4972 14.9529 1.4 7.3569 -45.8625 -66.855
351 16.9972 14.9529 1.4 6.44446 -58.3891 27.5926
352 18.4972 14.9529 1.4 5.78258 -48.2081 -62.8399
353 19.9972 14.9529 1.4 5.4631 -59.0619 -163.266
354 21.4972 14.9529 1.4 5.5455 -58.3007 -32.5907
355 22.9972 14.9529 1.4 6.0133 -75.4384 -53.6974
356 24.4972 14.9529 1.4 6.78726 -66.5566 109.952
357 25.9972 14.9529 1.4 7.77651 -50.7209 -146.692
358 27.4972 14.9529 1.4 8.90962 -59.306 -110.628
359 28.9972 14.9529 1.4 10.1385 -51.4794 -22.7808
360 30.4972 14.9529 1.4 11.4322 -53.3894 25.7699
361 -28.0028 16.4529 1.4 48.6079 -116.835 38.9027
362 -26.5028 16.4529 1.4 47.113 -101.194 146.108
363 -25.0028 16.4529 1.4 45.6185 -110.112 123.823
364 -23.5028 16.4529 1.4 44.1243 -125.229 -157.626
365 -22.0028 16.4529 1.4 42.6305 -91.3798 158.823
366 -20.5028 16.4529 1.4 41.1372 -121.591 58.7675
367 -19.0028 16.4529 1.4 39.6444 -118.459 -47.945
368 -17.5028 16.4529 1.4 38.1521 -117.296 151.591
369 -16.0028 16.4529 1.4 36.6605 -115.87 161.615
370 -14.5028 16.4529 1.4 35.1695 -118.584 -79.5381
371 -13.0028 16.4529 1.4 33.6794 -95.496 75.9645
372 -11.5028 16.4529 1.4 32.1902 -100.201 -30.9456
373 -10.0028 16.4529 1.4 30.7021 -86.4703 63.836
374 -8.50282 16.4529 1.4 29.2152 -78.9302 -6.29196
375 -7.00282 16.4529 1.4 27.7296 -85.0546 -65.6233
376 -5.50282 16.4529 1.4 26.2458 -86.7696 68.6559
377 -4.00282 16.4529 1.4 24.7638 -78.9391 -9.99824
378 -2.50282 16.4529 1.4 23.2842 -85.6436 -143.752
379 -1.00282 16.4529 1.4 21.8074 -84.0956 158.602
380 0.49718 16.4529 1.4 20.3339 -81.7159 7.85014
381 1.99718 16.4529 1.4 18.8647 -88.2683 139.967
382 3.49718 16.4529 1.4 17.4006 -67.5978 30.7269
383 4.99718 16.4529 1.4 15.9433 -55.825 98.79
384 6.49718 16.4529 1.4 14.4947 -62.4713 5.43883
385 7.99718 16.4529 1.4 13.0577 -61.418 -135.101
386 9.49718 16.4529 1.4 11.6366 -51.3922 44.8655
387 10.9972 16.4529 1.4 10.2381 -49.1698 -45.8359
388 12.4972 16.4529 1.4 8.87274 -51.0861 98.4828
389 13.9972 16.4529 1.4 7.55861 -60.7949 -58.8737
390 15.4972 16.4529 1.4 6.3277 -52.073 46.088
391 16.9972 16.4529 1.4 5.23898 -58.56 99.8594
392 18.4972 16.4529 1.4 4.39933 -40.8757 45.4087
393 19.9972 16.4529 1.4 3.97004 -45.3939 75.5583
394 21.4972 16.4529 1.4 4.0827 -49.9259 -162.967
395 22.9972 16.4529 1.4 4.69847 -67.1068 -133.443
396 24.4972 16.4529 1.4 5.65533 -53.6835 -54.0665
397 25.9972 16.4529 1.4 6.81101 -52.0368 33.5652
398 27.4972 16.4529 1.4 8.08066 -48.933 -120.6
399 28.9972 16.4529 1.4 9.41829 -56.6562 -171.768
400 30.4972 16.4529 1.4 10.7987 -67.8368 2.2637
401 -28.0028 17.9529 1.4 48.5093 -120.524 -157.658
402 -26.5028 17.9529 1.4 47.0112 -144.507 -47.9822
403 -25.0028 17.9529 1.4 45.5133 -130.718 -140.846
404 -23.5028 17.9529 1.4 44.0156 -147.515 -124.153
405 -22.0028 17.9529 1.4 42.518 -122.163 123.631
406 -20.5028 17.9529 1.4 41.0205 -146.742 -49.0966
407 -19.0028 17.9529 1.4 39.5233 -154.168 -44.7476
408 -17.5028 17.9529 1.4 38.0263 -125.433 -170.038
409 -16.0028 17.9529 1.4 36.5295 -121.25 -1.85569
410 -14.5028 17.9529 1.4 35.033 -110.026 122.023
411 -13.0028 17.9529 1.4 33.5368 -90.4901 -73.204
412 -11.5028 17.9529 1.4 32.041 -93.1583 -163.247
413 -10.0028 17.9529 1.4 30.5456 -79.0377 -62.7501
414 -8.50282 17.9529 1.4 29.0507 -74.7236 179.825
415 -7.00282 17.9529 1.4 27.5563 -89.9918 -55.4283
416 -5.50282 17.9529 1.4 26.0625 -79.2115 146.473
417 -4.00282 17.9529 1.4 24.5695 -83.0942 -143.5
418 -2.50282 17.9529 1.4 23.0775 -86.2486 -29.5599
419 -1.00282 17.9529 1.4 21.5865 -86.9083 23.6399
420 0.49718 17.9529 1.4 20.0969 -82.187 21.9379
421 1.99718 17.9529 1.4 18.6089 -74.7491 -69.915
422 3.49718 17.9529 1.4 17.123 -60.5648 -175.594
423 4.99718 17.9529 1.4 15.6399 -64.2891 145.189
424 6.49718 17.9529 1.4 14.1602 -59.5717 -102.05
425 7.99718 17.9529 1.4 12.6854 -57.6427 -14.5737
426 9.49718 17.9529 1.4 11.2173 -58.0355 -141.753
427 10.9972 17.9529 1.4 9.75879 -53.9574 -119.951
428 12.4972 17.9529 1.4 8.31512 -64.0525 163.509
429 13.9972 17.9529 1.4 6.89554 -47.1423 98.7638
430 15.4972 17.9529 1.4 5.51866 -54.7446 -103.717
431 16.9972 17.9529 1.4 4.22643 -48.2177 123.561
432 18.4972 17.9529 1.4 3.12568 -42.9861 156.788
433 19.9972 17.9529 1.4 2.48537 -46.2061 141.867
434 21.4972 17.9529 1.4 2.66162 -48.3944 136.982
435 22.9972 17.9529 1.4 3.53432 -47.6428 54.6625
436 24.4972 17.9529 1.4 4.73271 -49.6276 72.9602
437 25.9972 17.9529 1.4 6.06677 -69.8241 -35.2285
438 27.4972 17.9529 1.4 7.46411 -53.5493 145.658
439 28.9972 17.9529 1.4 8.89494 -63.4882 -17.3426
440 30.4972 17.9529 1.4 10.3454 -58.0401 76.8132
441 -28.0028 19.4529 1.4 48.4568 -250 0
442 -26.5028 19.4529 1.4 46.9571 -250 0
443 -25.0028 19.4529 1.4 45.4574 -250 0
444 -23.5028 19.4529 1.4 43.9578 -250 0
445 -22.0028 19.4529 1.4 42.4581 -250 0
446 -20.5028 19.4529 1.4 40.9585 -250 0
447 -19.0028 19.4529 1.4 39.4589 -250 0
448 -17.5028 19.4529 1.4 37.9594 -250 0
449 -16.0028 19.4529 1.4 36.4599 -108.579 56.1017
450 -14.5028 19.4529 1.4 34.9604 -96.2339 7.59274
451 -13.0028 19.4529 1.4 33.461 -99.4604 -153.667
452 -11.5028 19.4529 1.4 31.9616 -93.5915 35.0346
453 -10.0028 19.4529 1.4 30.4623 -73.4762 76.2262
454 -8.50282 19.4529 1.4 28.963 -84.3501 -55.2485
455 -7.00282 19.4529 1.4 27.4639 -78.2093 -26.6304
456 -5.50282 19.4529 1.4 25.9648 -87.391 -56.8132
457 -4.00282 19.4529 1.4 24.4659 -90.6546 72.7418
458 -2.50282 19.4529 1.4 22.9671 -81.5041 -132.034
459 -1.00282 19.4529 1.4 21.4684 -85.026 -171.904
460 0.49718 19.4529 1.4 19.97 -72.7766 154.06
461 1.99718 19.4529 1.4 18.4718 -82.4809 -43.7731
462 3.49718 19.4529 1.4 16.9739 -58.9935 111.994
463 4.99718 19.4529 1.4 15.4765 -63.1889 -136.618
464 6.49718 19.4529 1.4 13.9796 -57.8066 -91.5808
465 7.99718 19.4529 1.4 12.4834 -61.0078 77.0749
466 9.49718 19.4529 1.4 10.9883 -65.6722 162.092
467 10.9972 19.4529 1.4 9.49473 -53.8379 -51.8112
468 12.4972 19.4529 1.4 8.00356 -52.9658 13.47
469 13.9972 19.4529 1.4 6.51646 -52.0955 -159.806
470 15.4972 19.4529 1.4 5.037 -55.6089 62.8071
471 16.9972 19.4529 1.4 3.57471 -58.792 141.306
472 18.4972 19.4529 1.4 2.16465 -39.0294 72.8053
473 19.9972 19.4529 1.4 1.0454 -32.0219 171.28
474 21.4972 19.4529 1.4 1.41423 -39.6848 179.848
475 22.9972 19.4529 1.4 2.72162 -45.5886 -169.014
476 24.4972 19.4529 1.4 4.16105 -46.4447 -93.3243
477 25.9972 19.4529 1.4 5.63219 -49.1659 -178.903
478 27.4972 19.4529 1.4 7.11538 -57.17 144.994
479 28.9972 19.4529 1.4 8.60441 -57.009 -28.41
480 30.4972 19.4529 1.4 10.0967 -61.7092 -133.113
